SubjectID	c_hap_f1.RT	c_hap_f2.RT	c_hap_f3.RT	c_hap_f4.RT	c_hap_f5.RT	c_hap_m1.RT	c_hap_m2.RT	c_hap_m3.RT	c_hap_m4.RT	c_hap_m5.RT	c_sad_f1.RT	c_sad_f2.RT	c_sad_f3.RT	c_sad_f4.RT	c_sad_f5.RT	c_sad_m1.RT	c_sad_m2.RT	c_sad_m3.RT	c_sad_m4.RT	c_sad_m5.RT	i_hap_f1.RT	i_hap_f2.RT	i_hap_f3.RT	i_hap_f4.RT	i_hap_f5.RT	i_hap_m1.RT	i_hap_m2.RT	i_hap_m3.RT	i_hap_m4.RT	i_hap_m5.RT	i_sad_f1.RT	i_sad_f2.RT	i_sad_f3.RT	i_sad_f4.RT	i_sad_f5.RT	i_sad_m1.RT	i_sad_m2.RT	i_sad_m3.RT	i_sad_m4.RT	i_sad_m5.RT	c_hap_f1.ACC	c_hap_f2.ACC	c_hap_f3.ACC	c_hap_f4.ACC	c_hap_f5.ACC	c_hap_m1.ACC	c_hap_m2.ACC	c_hap_m3.ACC	c_hap_m4.ACC	c_hap_m5.ACC	c_sad_f1.ACC	c_sad_f2.ACC	c_sad_f3.ACC	c_sad_f4.ACC	c_sad_f5.ACC	c_sad_m1.ACC	c_sad_m2.ACC	c_sad_m3.ACC	c_sad_m4.ACC	c_sad_m5.ACC	i_hap_f1.ACC	i_hap_f2.ACC	i_hap_f3.ACC	i_hap_f4.ACC	i_hap_f5.ACC	i_hap_m1.ACC	i_hap_m2.ACC	i_hap_m3.ACC	i_hap_m4.ACC	i_hap_m5.ACC	i_sad_f1.ACC	i_sad_f2.ACC	i_sad_f3.ACC	i_sad_f4.ACC	i_sad_f5.ACC	i_sad_m1.ACC	i_sad_m2.ACC	i_sad_m3.ACC	i_sad_m4.ACC	i_sad_m5.ACC	c_hap_f1.nTrial	c_hap_f2.nTrial	c_hap_f3.nTrial	c_hap_f4.nTrial	c_hap_f5.nTrial	c_hap_m1.nTrial	c_hap_m2.nTrial	c_hap_m3.nTrial	c_hap_m4.nTrial	c_hap_m5.nTrial	c_sad_f1.nTrial	c_sad_f2.nTrial	c_sad_f3.nTrial	c_sad_f4.nTrial	c_sad_f5.nTrial	c_sad_m1.nTrial	c_sad_m2.nTrial	c_sad_m3.nTrial	c_sad_m4.nTrial	c_sad_m5.nTrial	i_hap_f1.nTrial	i_hap_f2.nTrial	i_hap_f3.nTrial	i_hap_f4.nTrial	i_hap_f5.nTrial	i_hap_m1.nTrial	i_hap_m2.nTrial	i_hap_m3.nTrial	i_hap_m4.nTrial	i_hap_m5.nTrial	i_sad_f1.nTrial	i_sad_f2.nTrial	i_sad_f3.nTrial	i_sad_f4.nTrial	i_sad_f5.nTrial	i_sad_m1.nTrial	i_sad_m2.nTrial	i_sad_m3.nTrial	i_sad_m4.nTrial	i_sad_m5.nTrial	
12002	441.67	412	468.5	410.67	390.67	359	434.67	425	410.5	418	378	420.67	397.33	444.33	411.5	329	416.5	434.33	420	429	442.33	457.67	501.5	379.5	409	417.67	457.33	431	426.5	366.5	476.5	433.33	404.5	396.5	388.67	508.5	440.33	461	432.33	455	1	0.66667	0.66667	1	1	0.66667	1	1	0.66667	0.66667	0.66667	1	1	1	0.66667	0.66667	0.66667	1	1	0.66667	1	1	1	0.66667	0.66667	1	1	1	0.66667	0.66667	0.66667	1	0.66667	0.66667	1	0.66667	1	0.33333	1	1	3	3	3	3	3	3	3	3	3	3	3	3	3	3	3	3	3	3	3	3	3	3	4	3	3	3	3	3	3	3	3	3	3	3	3	3	3	3	3	3
12010	553.5	545.5	600.5	396.5	438.67	468.5	574	543.67	426.33	527.5	668	543.67	468	537	526.67	476	565	502	524.67	527.67	549	517.67	464.75	402.67	521	441.33	589.67	507.33	428	392	446	620.67	592	623	443	544.5	483.67	480.67	544	569	0.66667	0.66667	0.66667	0.66667	1	0.66667	0.66667	1	1	0.66667	0.66667	1	1	0.33333	1	1	1	1	1	1	1	1	1	1	0.33333	1	1	1	1	0.66667	0.33333	1	1	0.66667	0.33333	0.66667	1	1	1	1	3	3	3	3	3	3	3	3	3	3	3	3	3	3	3	3	3	3	3	3	3	3	4	3	3	3	3	3	3	3	3	3	3	3	3	3	3	3	3	3
12016	577.33	521.67	482.5	515	649.67	484.5	551.33	499.33	591	533.5	591.67	543	610.67	580.33	578	527.67	526	584.33	526.33	509	545.67	517	645	625	634.5	633.5	714	527.5	582.33	552.5	623	601.33	560	693	575.5	654.67	657.67	562	688	588	1	1	0.66667	0.66667	1	0.66667	1	1	1	0.66667	1	1	1	1	0.66667	1	0.66667	1	1	1	1	1	0.75	0.33333	0.66667	0.66667	1	0.66667	1	0.66667	1	1	1	0.66667	0.66667	1	1	1	1	1	3	3	3	3	3	3	3	3	3	3	3	3	3	3	3	3	3	3	3	3	3	3	4	3	3	3	3	3	3	3	3	3	3	3	3	3	3	3	3	3
12017	514.67	496.33	626.5	383	470	654.33	597.33	541.67	595.5	646.5	603	523.67	511.33	569.33	557.33	516	556	461.33	590.67	444	581	678.33	496	604.33	672	582.67	599	477.67	570.5	492	602.5	619	604	577.5	615.5	657	506.33	548.5	559	501.33	1	1	0.66667	0.66667	1	1	1	1	0.66667	0.66667	0.66667	1	1	1	1	0.66667	1	1	1	0.66667	1	1	0.5	1	0.33333	1	0.66667	1	0.66667	1	0.66667	0.66667	1	0.66667	0.66667	0.66667	1	0.66667	1	1	3	3	3	3	3	3	3	3	3	3	3	3	3	3	3	3	3	3	3	3	3	3	4	3	3	3	3	3	3	3	3	3	3	3	3	3	3	3	3	3
12033	549.33	490	563.5	487.5	425.33	563	402.33	549.33	445	530	483	527	494.67	530.67	546.5	644.5	527.5	506.33	608.67	559.5	470.67	473.67	540.5	468.33	525	484.67	430.67	506.67	439.67	514.5	436	457.5	505.33	572.5	506.33	594.67	523	504.33	516.33	573.33	1	1	0.66667	0.66667	1	0.33333	1	1	1	0.66667	0.66667	1	1	1	0.66667	0.66667	0.66667	1	1	0.66667	1	1	1	1	0.66667	1	1	1	1	0.66667	0.33333	0.66667	1	0.66667	1	1	1	1	1	1	3	3	3	3	3	3	3	3	3	3	3	3	3	3	3	3	3	3	3	3	3	3	4	3	3	3	3	3	3	3	3	3	3	3	3	3	3	3	3	3
12040	641	589.67	585.5	526.33	528.67	746	709	554	467.67	553.5	747.5	709.33	518	631.67	692	583.5	684.33	586.67	606	593.33	541.5	531.33	624.5	547.67	667	661	721.5	660	540.67	682.33	832	691	681.67	661	589.5	699.67	596	639.33	647.33	599.33	1	1	0.66667	1	1	0.66667	0.66667	1	1	0.66667	0.66667	1	1	1	1	0.66667	1	1	1	1	0.66667	1	1	1	0.66667	0.66667	0.66667	0.66667	1	1	0.66667	0.66667	1	1	0.66667	1	1	1	1	1	3	3	3	3	3	3	3	3	3	3	3	3	3	3	3	3	3	3	3	3	3	3	4	3	3	3	3	3	3	3	3	3	3	3	3	3	3	3	3	3
12042	497.67	552	417	454.5	468.67	473.33	598.5	457.5	609.33	404.5	551	515	510	716.5	507.5	513	524.67	560	558	559	557.33	483	469.25	427.33	493.5	479.67	537	487.67	708.33	555.33	641	486	480	502	649.33	581.33	574.33	569.5	485.33	581	1	1	0.66667	0.66667	1	1	0.66667	0.66667	1	0.66667	0.66667	0.66667	1	0.66667	0.66667	1	1	0.66667	1	1	1	1	1	1	0.66667	1	1	1	1	1	1	1	1	0.33333	1	1	1	0.66667	1	1	3	3	3	3	3	3	3	3	3	3	3	3	3	3	3	3	3	3	3	3	3	3	4	3	3	3	3	3	3	3	3	3	3	3	3	3	3	3	3	3
12048	504.67	612.67	571.5	514.33	485	443.33	444.67	495.33	483.33	508	623.67	543.5	552.33	548.5	568	526.5	491.67	597.33	536.67	560.67	505	593	590.33	436.5	418.5	505.33	507	394.67	584	561	668	540	530.33	493.33	615	584.67	612	534.67	588	527.33	1	1	0.66667	1	1	1	1	1	1	0.66667	1	0.66667	1	0.66667	0.66667	0.66667	1	1	1	1	0.66667	1	0.75	0.66667	0.66667	1	1	1	0.66667	0.66667	0.33333	1	1	1	0.66667	1	1	1	0.66667	1	3	3	3	3	3	3	3	3	3	3	3	3	3	3	3	3	3	3	3	3	3	3	4	3	3	3	3	3	3	3	3	3	3	3	3	3	3	3	3	3
12051	563	503.67	481	360.67	469.67	458.5	448.67	470.67	385.67	399	459	466.33	481.33	485	517.33	492.5	509.67	496.67	507	447.33	508.33	397	397	468	532.5	425.33	569.5	393.33	375.33	410.5	515	498.5	457	559.33	435.67	523	539.67	602.5	456.33	459.67	0.66667	1	0.66667	1	1	0.66667	1	1	1	0.66667	1	1	1	1	1	0.66667	1	1	1	1	1	1	0.75	1	0.66667	1	0.66667	1	1	0.66667	0.33333	0.66667	1	1	1	0.66667	1	0.66667	1	1	3	3	3	3	3	3	3	3	3	3	3	3	3	3	3	3	3	3	3	3	3	3	4	3	3	3	3	3	3	3	3	3	3	3	3	3	3	3	3	3
12052	577	646	576	514.5	583	597.5	593.67	710	552	682	600	645	608.67	596	581	552.67	542	586.67	552.33	586.67	626	603	651.33	696	531.67	588	NaN	574	590	680.67	517	689.5	611	534	639.67	619.5	601	514	736.5	604.67	0.33333	0.33333	0.66667	0.66667	0.33333	0.66667	1	0.33333	0.66667	0.66667	0.66667	0.33333	1	0.33333	0.66667	1	0.66667	1	1	1	1	0.33333	0.75	0.33333	1	1	0	0.66667	0.33333	1	0.33333	0.66667	1	0.66667	1	0.66667	0.66667	0.66667	0.66667	1	3	3	3	3	3	3	3	3	3	3	3	3	3	3	3	3	3	3	3	3	3	3	4	3	3	3	3	3	3	3	3	3	3	3	3	3	3	3	3	3
12054	655	660.67	557.5	660	581.33	649	673	690.33	782	596	641.33	603.5	530.5	640.5	646.67	649.33	650.67	502	528	557.67	729	560.5	629.75	590	580	656.67	709.5	644	702	688	705.5	607.33	589.33	537	634	566	576	585	544	606.33	1	1	0.66667	1	1	0.66667	0.66667	1	0.33333	0.33333	1	0.66667	0.66667	0.66667	1	1	1	1	1	1	1	0.66667	1	1	0.33333	1	0.66667	1	0.66667	0.66667	0.66667	1	1	0.66667	1	0.66667	0.66667	0.66667	1	1	3	3	3	3	3	3	3	3	3	3	3	3	3	3	3	3	3	3	3	3	3	3	4	3	3	3	3	3	3	3	3	3	3	3	3	3	3	3	3	3
12057	436	465	415	375	433	456	544	485	393.5	440.5	556	587.5	543.67	602.5	658	591	621.67	494	561.33	532.33	482	451.67	494.25	434.33	527.5	442.67	690.5	459	441	446.67	585	543.5	557	NaN	676.5	633.5	526	587	539.33	446	1	1	0.66667	1	1	0.33333	1	1	0.66667	0.66667	0.33333	0.66667	1	0.66667	0.66667	1	1	1	1	1	1	1	1	1	0.66667	1	0.66667	1	0.66667	1	0.66667	0.66667	1	0	0.66667	0.66667	0.66667	0.66667	1	0.33333	3	3	3	3	3	3	3	3	3	3	3	3	3	3	3	3	3	3	3	3	3	3	4	3	3	3	3	3	3	3	3	3	3	3	3	3	3	3	3	3
12069	519.33	513	570.5	546.67	605	491.33	504	565.5	531.33	583	539.33	552.67	493.33	604.67	588.33	641	559.67	474.33	582.33	477.5	645.33	567.67	637.25	614	551	530.33	637.67	602.67	582	641	680.5	542	648.33	613	701	643	564.33	636.5	576	629.5	1	1	0.66667	1	1	1	1	0.66667	1	0.66667	1	1	1	1	1	1	1	1	1	0.66667	1	1	1	1	0.66667	1	1	1	1	0.33333	0.66667	1	1	0.33333	1	0.66667	1	0.66667	1	0.66667	3	3	3	3	3	3	3	3	3	3	3	3	3	3	3	3	3	3	3	3	3	3	4	3	3	3	3	3	3	3	3	3	3	3	3	3	3	3	3	3
12074	NaN	NaN	NaN	NaN	NaN	NaN	NaN	NaN	NaN	659	NaN	NaN	NaN	NaN	NaN	NaN	NaN	NaN	NaN	NaN	NaN	NaN	NaN	NaN	685	NaN	NaN	NaN	NaN	NaN	NaN	NaN	NaN	NaN	NaN	NaN	NaN	NaN	NaN	NaN	0	0	0	0	0	0	0	0	0	0.33333	0	0	0	0	0	0	0	0	0	0	0	0	0	0	0.33333	0	0	0	0	0	0	0	0	0	0	0	0	0	0	0	3	3	3	3	3	3	3	3	3	3	3	3	3	3	3	3	3	3	3	3	3	3	4	3	3	3	3	3	3	3	3	3	3	3	3	3	3	3	3	3
12075	690.5	725.33	663	596.33	615	553	536	569.33	728	497	695.5	681.5	517.33	720	531	615.5	557.67	514.67	544.67	530.67	660	599.33	527.67	596.67	609.5	726	643	509	585.67	508.5	792	567	654.67	577	578.67	579	604	531.67	498.67	590.33	0.66667	1	0.66667	1	1	0.66667	0.66667	1	1	0.33333	0.66667	0.66667	1	1	1	0.66667	1	1	1	1	1	1	0.75	1	0.66667	0.66667	0.66667	1	1	0.66667	0.33333	0.66667	1	1	1	0.66667	1	1	1	1	3	3	3	3	3	3	3	3	3	3	3	3	3	3	3	3	3	3	3	3	3	3	4	3	3	3	3	3	3	3	3	3	3	3	3	3	3	3	3	3
12081	485.33	473	477.5	535.33	467.5	610	540.67	565.5	552	528	557.33	512	532.33	600.67	535	574	598	538	529	552.33	484	498	489	539.67	436	465.67	607	416	481	597.33	529.33	507	495.5	636	578.5	641.67	515.33	589.67	566.5	650.33	1	1	0.66667	1	0.66667	1	1	0.66667	1	0.66667	1	1	1	1	0.66667	0.66667	0.66667	1	1	1	1	1	1	1	0.33333	1	0.66667	1	1	1	1	1	0.66667	0.66667	0.66667	1	1	1	0.66667	1	3	3	3	3	3	3	3	3	3	3	3	3	3	3	3	3	3	3	3	3	3	3	4	3	3	3	3	3	3	3	3	3	3	3	3	3	3	3	3	3
12086	486	522.33	424	479.67	527	443	534	510.33	499	565	546.67	697.5	519	537.5	614	606	613.67	500.33	499.67	538.33	423.33	506.33	508	495	479	508.67	468	591	452.67	483.5	611	630.5	586	672	627.5	591	553.33	568	594.67	483.33	0.66667	1	0.66667	1	1	0.66667	0.66667	1	1	0.66667	1	0.66667	1	0.66667	1	0.66667	1	1	1	1	1	1	1	1	0.66667	1	0.33333	1	1	0.66667	0.66667	0.66667	1	0.33333	0.66667	0.33333	1	1	1	1	3	3	3	3	3	3	3	3	3	3	3	3	3	3	3	3	3	3	3	3	3	3	4	3	3	3	3	3	3	3	3	3	3	3	3	3	3	3	3	3
12087	493.67	451.67	436	451.67	506	482.67	461	474	492	471	699	695	440	576	688.67	500.33	610	646.33	574	435.67	539	453.67	585	448.67	482	531.5	594	564.33	514.67	566	626	618	570.33	600	667	536	548	511	529.33	629	1	1	0.66667	1	1	1	1	1	1	0.66667	0.33333	0.66667	0.66667	0.66667	1	1	1	1	1	1	1	1	1	1	0.33333	0.66667	0.66667	1	1	1	0.33333	1	1	0.33333	0.66667	0.66667	1	1	1	0.66667	3	3	3	3	3	3	3	3	3	3	3	3	3	3	3	3	3	3	3	3	3	3	4	3	3	3	3	3	3	3	3	3	3	3	3	3	3	3	3	3
12088	NaN	NaN	NaN	NaN	NaN	NaN	NaN	NaN	NaN	NaN	NaN	NaN	NaN	NaN	NaN	NaN	NaN	NaN	NaN	NaN	NaN	NaN	NaN	NaN	560	NaN	NaN	NaN	NaN	NaN	NaN	NaN	NaN	NaN	NaN	NaN	NaN	NaN	NaN	NaN	0	0	0	0	0	0	0	0	0	0	0	0	0	0	0	0	0	0	0	0	0	0	0	0	0.33333	0	0	0	0	0	0	0	0	0	0	0	0	0	0	0	3	3	3	3	3	3	3	3	3	3	3	3	3	3	3	3	3	3	3	3	3	3	4	3	3	3	3	3	3	3	3	3	3	3	3	3	3	3	3	3
12089	489.5	590	541	516.67	567.67	440.5	566	535.33	496.67	591.5	642.33	572	552.67	821.67	619.67	798	519.67	726.5	612	665.67	564	739	617.25	621.67	443.5	609	766	601.33	612.67	676.33	765.33	761.33	557	681	512	812	499.5	707	538.33	653	0.66667	1	0.66667	1	1	0.66667	1	1	1	0.66667	1	0.66667	1	1	1	1	1	0.66667	1	1	0.66667	0.33333	1	1	0.66667	0.66667	1	1	1	1	1	1	1	0.66667	0.33333	0.66667	0.66667	1	1	0.66667	3	3	3	3	3	3	3	3	3	3	3	3	3	3	3	3	3	3	3	3	3	3	4	3	3	3	3	3	3	3	3	3	3	3	3	3	3	3	3	3
12101	404	456	349	484	389.33	450	428.67	476.67	400.33	419	478	541.33	442.67	540.5	512	432	515.33	503	463.67	467.33	513.67	551	438.25	465.67	411.5	374.33	310.5	359.5	578.5	510	530.67	412	506.67	492.33	421.67	480.33	529	497.67	509.33	417	1	1	0.66667	1	1	1	1	1	1	0.66667	1	1	1	0.66667	0.66667	1	1	1	1	1	1	1	1	1	0.66667	1	0.66667	0.66667	0.66667	1	1	0.66667	1	1	1	1	0.33333	1	1	0.66667	3	3	3	3	3	3	3	3	3	3	3	3	3	3	3	3	3	3	3	3	3	3	4	3	3	3	3	3	3	3	3	3	3	3	3	3	3	3	3	3
12130	427.33	552	488.5	489.33	479.67	468.67	548	466.33	484.33	494	473	473.33	521	585.33	534.67	549.67	515.33	540.33	504	469.67	440.67	498.33	459.75	482.33	493	582.67	499.5	500.5	497.67	551	592	458.33	519	515	524.5	582	525	520	479	505.33	1	1	0.66667	1	1	1	0.66667	1	1	0.33333	1	1	1	1	1	1	1	1	1	1	1	1	1	1	0.66667	1	0.66667	0.66667	1	1	0.66667	1	1	1	0.66667	0.66667	1	1	1	1	3	3	3	3	3	3	3	3	3	3	3	3	3	3	3	3	3	3	3	3	3	3	4	3	3	3	3	3	3	3	3	3	3	3	3	3	3	3	3	3
12131	460	425.33	448	430.67	425	422.5	461.33	441	385.67	427.5	NaN	479.33	423.67	NaN	464	405.67	456	420	458.67	431.67	395.33	421	473	408	490.5	438	518	425.67	433	502	551.5	470	500	419	477	462.67	439.33	462	500	438	1	1	0.66667	1	1	0.66667	1	1	1	0.66667	0	1	1	0	1	1	1	1	1	1	1	1	1	1	0.66667	1	0.66667	1	1	1	0.66667	0.66667	0.66667	0.33333	1	1	1	0.66667	1	1	3	3	3	3	3	3	3	3	3	3	3	3	3	3	3	3	3	3	3	3	3	3	4	3	3	3	3	3	3	3	3	3	3	3	3	3	3	3	3	3
12134	0	0	NaN	0	0	0	0	0	0	0	0	0	0	0	0	0	0	0	0	0	0	0	0	0	0	0	0	0	0	0	0	0	0	0	0	0	0	0	0	0	0	0	0	0	0	0	0	0	0	0	0	0	0	0	0	0	0	0	0	0	0	0	0	0	0	0	0	0	0	0	0	0	0	0	0	0	0	0	0	0	0	0	1	0	0	0	0	0	0	0	0	0	0	0	0	0	0	0	0	0	0	0	0	0	0	0	0	0	0	0	0	0	0	0	0	0	0	0	0	0
12135	NaN	NaN	NaN	NaN	NaN	NaN	NaN	NaN	NaN	404	NaN	NaN	NaN	NaN	NaN	NaN	NaN	NaN	NaN	NaN	NaN	NaN	NaN	NaN	545	NaN	406	NaN	NaN	NaN	NaN	508	NaN	NaN	NaN	NaN	NaN	456	NaN	NaN	0	0	0	0	0	0	0	0	0	0.33333	0	0	0	0	0	0	0	0	0	0	0	0	0	0	0.33333	0	0.33333	0	0	0	0	0.33333	0	0	0	0	0	0.33333	0	0	3	3	3	3	3	3	3	3	3	3	3	3	3	3	3	3	3	3	3	3	3	3	4	3	3	3	3	3	3	3	3	3	3	3	3	3	3	3	3	3
12136	618.67	665	595	567.67	590	548	649.33	628	596	650	729	689.33	654.33	739.33	652.33	657.67	606	687.67	605.67	627.33	561.67	550	558	592	710	615.67	710.67	622	682.33	542	795	614.67	652.67	533.5	616.5	682	558.5	696	674.33	639.5	1	1	0.66667	1	1	0.66667	1	1	1	0.66667	1	1	1	1	1	1	1	1	1	1	1	1	1	1	0.33333	1	1	1	1	0.66667	0.33333	1	1	0.66667	0.66667	0.66667	0.66667	0.66667	1	0.66667	3	3	3	3	3	3	3	3	3	3	3	3	3	3	3	3	3	3	3	3	3	3	4	3	3	3	3	3	3	3	3	3	3	3	3	3	3	3	3	3
12137	620	641.67	648.5	525	527.67	485.67	475.5	538	445.33	558.5	579.67	552.33	505	573.67	544	455.5	535	512	481.33	572.67	604	581.67	526.5	414.33	598	576.33	525	521	614.33	651.67	558.5	664.33	503.33	565	584.33	672.5	589	563.33	541.67	567.67	1	1	0.66667	1	1	1	0.66667	1	1	0.66667	1	1	1	1	1	0.66667	1	1	1	1	0.33333	1	1	1	0.66667	1	1	1	1	1	0.66667	1	1	1	1	0.66667	1	1	1	1	3	3	3	3	3	3	3	3	3	3	3	3	3	3	3	3	3	3	3	3	3	3	4	3	3	3	3	3	3	3	3	3	3	3	3	3	3	3	3	3
12138	617	489	581	678	577.67	566	768	631.33	642	642	635.67	546	718	840.5	652	698	567.67	575.5	614	594.5	643	713.33	743	481	574.5	745	813.5	774	571	691	522	502	550	707	662	506.33	502.67	546.5	571	493	1	0.33333	0.66667	1	1	1	0.66667	1	0.66667	0.66667	1	1	1	0.66667	1	1	1	0.66667	1	0.66667	0.66667	1	0.75	0.66667	0.66667	0.33333	0.66667	0.33333	0.66667	0.66667	0.33333	1	1	0.33333	1	1	1	0.66667	0.66667	0.33333	3	3	3	3	3	3	3	3	3	3	3	3	3	3	3	3	3	3	3	3	3	3	4	3	3	3	3	3	3	3	3	3	3	3	3	3	3	3	3	3
12139	572	627.67	587	588.33	597	654.33	601.33	677.67	616	553.5	655.33	592	589.33	686	675.67	563.5	695.33	698	662	598	626.33	631.33	636.75	628.67	691.5	654	711.33	605.33	745	684.5	694	606.67	541.67	511	666.5	703.67	600.33	605	628.33	641.33	1	1	0.66667	1	1	1	1	1	1	0.66667	1	1	1	1	1	0.66667	1	1	1	1	1	1	1	1	0.66667	0.66667	1	1	1	0.66667	0.33333	1	1	0.66667	0.66667	1	1	1	1	1	3	3	3	3	3	3	3	3	3	3	3	3	3	3	3	3	3	3	3	3	3	3	4	3	3	3	3	3	3	3	3	3	3	3	3	3	3	3	3	3
12140	500	505	441	498	500	506.67	549	542.67	492.33	534	595	522	476.67	486	700	532.67	552.67	474	592.5	497.33	521.33	488.5	489.33	522	527.5	588.33	566.67	600.67	529	592.5	NaN	594.33	523	722	580	671.33	546	558	477	552.5	1	1	0.66667	1	1	1	1	1	1	0.66667	1	1	1	0.66667	0.33333	1	1	1	0.66667	1	1	0.66667	0.75	1	0.66667	1	1	1	1	0.66667	0	1	1	0.33333	0.33333	1	1	1	0.66667	0.66667	3	3	3	3	3	3	3	3	3	3	3	3	3	3	3	3	3	3	3	3	3	3	4	3	3	3	3	3	3	3	3	3	3	3	3	3	3	3	3	3
12143	578	464.5	560	468.67	593.5	567.67	556	553	462.5	438	508	469.33	493	504.5	434	445	611	550.33	536	479.67	548.67	576.33	528	416	358	464.33	612.33	424.33	437	627.5	628.5	546.67	486	472.5	415	517	548.33	562.5	461.5	469.33	1	0.66667	0.66667	1	0.66667	1	1	1	0.66667	1	1	1	1	0.66667	0.66667	0.66667	1	1	1	1	1	1	0.75	0.66667	0.33333	1	1	1	1	0.66667	0.66667	1	0.66667	0.66667	0.66667	0.66667	1	0.66667	0.66667	1	3	3	3	3	3	3	3	3	3	3	3	3	3	3	3	3	3	3	3	3	3	3	4	3	3	3	3	3	3	3	3	3	3	3	3	3	3	3	3	3
12148	662.67	670	579.5	579.33	601	596.5	688.33	731.5	610.33	529	611	549.67	585	592	648.5	592.67	557.67	514.33	564	564.67	540	602.67	697.75	621	646	703.33	NaN	689.33	752	682.5	835	740.5	653	766.5	641.5	606.5	618	656.67	611.67	572.67	1	1	0.66667	1	1	0.66667	1	0.66667	1	0.66667	1	1	1	0.66667	0.66667	1	1	1	0.66667	1	0.66667	1	1	0.33333	0.66667	1	0	1	0.66667	0.66667	0.66667	0.66667	1	0.66667	0.66667	0.66667	1	1	1	1	3	3	3	3	3	3	3	3	3	3	3	3	3	3	3	3	3	3	3	3	3	3	4	3	3	3	3	3	3	3	3	3	3	3	3	3	3	3	3	3
12151	528	660.67	476	653	513.33	515.33	553	518	620.67	492	588.67	611.67	485.67	550.5	692.33	587	595.67	618.33	552.33	522.33	601	618.67	523.75	539	722	516	789.5	739	634.33	540.33	559	570	574	646.5	737.5	625.67	573.5	648	591	561.67	0.66667	1	0.33333	1	1	1	1	0.66667	1	0.33333	1	1	1	0.66667	1	1	1	1	1	1	1	1	1	0.66667	0.66667	0.33333	0.66667	0.66667	1	1	1	1	1	0.66667	0.66667	1	0.66667	0.66667	0.66667	1	3	3	3	3	3	3	3	3	3	3	3	3	3	3	3	3	3	3	3	3	3	3	4	3	3	3	3	3	3	3	3	3	3	3	3	3	3	3	3	3
12154	554.67	474	576	512.67	543.33	438	505	508	525.5	490.5	595.33	576.33	560.33	528.33	544	595	550.67	495.67	605	595.67	598	458.67	542	526.67	549	561	669	511	517.67	604	634.33	593	603.67	627.67	596	647.33	586.33	530.33	624	626.67	1	1	0.66667	1	1	0.66667	1	1	0.66667	0.66667	1	1	1	1	1	0.66667	1	1	1	1	1	1	1	1	0.66667	0.66667	0.66667	1	1	1	1	1	1	1	0.66667	1	1	1	1	1	3	3	3	3	3	3	3	3	3	3	3	3	3	3	3	3	3	3	3	3	3	3	4	3	3	3	3	3	3	3	3	3	3	3	3	3	3	3	3	3
12155	689.67	603	596	489.67	577	590	666.5	572.33	618.67	500	592.33	581.5	581.33	722.33	634.67	645	645.67	566	610	670.33	593	607	637	614.67	599.5	655	603	613	552.33	758.67	580	550	562.5	593.5	723	652	587.67	623	679.33	582.5	1	1	0.66667	1	0.66667	1	0.66667	1	1	0.66667	1	0.66667	1	1	1	0.33333	1	1	1	1	0.66667	1	0.75	1	0.66667	0.66667	0.66667	1	1	1	0.66667	0.66667	0.66667	0.66667	1	1	1	1	1	0.66667	3	3	3	3	3	3	3	3	3	3	3	3	3	3	3	3	3	3	3	3	3	3	4	3	3	3	3	3	3	3	3	3	3	3	3	3	3	3	3	3
12156	563.5	591	621.5	520.33	554.33	524	476	609	578.67	574.5	592	604.33	546	576	540	512	573.67	540	525.33	653.67	644	641	552.33	647	593	676	528	608.67	584.5	556.5	546	556.5	552	627	561.67	540.33	583.5	588.67	607.33	470	0.66667	1	0.66667	1	1	0.66667	0.66667	0.66667	1	0.66667	0.66667	1	1	1	0.66667	0.66667	1	1	1	1	1	1	0.75	0.66667	0.66667	1	0.33333	1	0.66667	0.66667	0.33333	0.66667	1	1	1	1	0.66667	1	1	0.66667	3	3	3	3	3	3	3	3	3	3	3	3	3	3	3	3	3	3	3	3	3	3	4	3	3	3	3	3	3	3	3	3	3	3	3	3	3	3	3	3
12157	580	543.5	670.5	546	502	483.5	594	511.5	668	561	475.67	540.33	478	568.33	552.67	475	573	581	494.33	548.67	636.5	681	494.75	551	574.5	487.5	656.33	639.67	613.33	595	674	542.5	435	560.33	585.33	508.5	654.67	636.67	489.67	473.5	1	0.66667	0.66667	1	0.66667	0.66667	0.66667	0.66667	1	0.33333	1	1	1	1	1	0.66667	1	1	1	1	0.66667	0.66667	1	0.66667	0.66667	0.66667	1	1	1	0.33333	0.66667	0.66667	0.33333	1	1	0.66667	1	1	1	0.66667	3	3	3	3	3	3	3	3	3	3	3	3	3	3	3	3	3	3	3	3	3	3	4	3	3	3	3	3	3	3	3	3	3	3	3	3	3	3	3	3
12158	730	615	620	596.5	679.67	638	733.33	702	594	NaN	NaN	NaN	838	NaN	NaN	NaN	NaN	871	869	862	723	583.5	722.25	758.33	832	610	820	694.5	643.33	611	NaN	859.5	667	NaN	976	890.5	973	688	947	NaN	1	1	0.33333	0.66667	1	0.66667	1	0.33333	0.66667	0	0	0	0.66667	0	0	0	0	0.66667	0.66667	0.33333	1	0.66667	1	1	0.66667	1	0.33333	0.66667	1	0.33333	0	0.66667	0.66667	0	0.33333	0.66667	0.33333	0.33333	0.33333	0	3	3	3	3	3	3	3	3	3	3	3	3	3	3	3	3	3	3	3	3	3	3	4	3	3	3	3	3	3	3	3	3	3	3	3	3	3	3	3	3
12160	495	525.33	438.5	497.67	515.33	503	495	498.5	534.5	443	469.67	498	478.33	531	501	500	540	517.67	550	536.33	514.67	507	625.25	562.5	518	566.5	678	556.67	561	457.67	717	533.33	528	514.5	487	538.5	500.67	562	576	564.33	1	1	0.66667	1	1	1	1	0.66667	0.66667	0.66667	1	1	1	1	1	1	1	1	0.66667	1	1	0.66667	1	0.66667	0.66667	0.66667	0.66667	1	1	1	0.33333	1	1	0.66667	1	0.66667	1	1	1	1	3	3	3	3	3	3	3	3	3	3	3	3	3	3	3	3	3	3	3	3	3	3	4	3	3	3	3	3	3	3	3	3	3	3	3	3	3	3	3	3
12161	791	587.5	NaN	576	668	783	806	784	494	846	897	NaN	746.5	852	710	669	787	795.5	648	NaN	659	772	854	598	NaN	694	696	624	818	637	NaN	501	957	787.5	761	778	811	468	622	623.5	0.33333	0.66667	0	0.66667	0.66667	0.33333	0.66667	0.33333	0.66667	0.33333	0.33333	0	0.66667	0.66667	0.66667	0.66667	0.66667	0.66667	0.33333	0	0.66667	0.33333	0.75	0.66667	0	0.66667	0.66667	0.33333	0.33333	0.33333	0	0.33333	0.33333	0.66667	0.33333	0.33333	0.66667	0.33333	0.33333	0.66667	3	3	3	3	3	3	3	3	3	3	3	3	3	3	3	3	3	3	3	3	3	3	4	3	3	3	3	3	3	3	3	3	3	3	3	3	3	3	3	3
12162	484.67	515.33	512	540.67	548.33	600	563	570.67	507.67	433	511	558.33	525.67	551	554.5	602	450	471.67	514.33	487.33	NaN	NaN	NaN	513	452	NaN	NaN	NaN	342	NaN	NaN	691	NaN	NaN	NaN	NaN	NaN	NaN	NaN	637	1	1	0.66667	1	1	1	1	1	1	0.66667	1	1	1	1	0.66667	1	0.33333	1	1	1	0	0	0	0.33333	0.33333	0	0	0	0.33333	0	0	0.33333	0	0	0	0	0	0	0	0.33333	3	3	3	3	3	3	3	3	3	3	3	3	3	3	3	3	3	3	3	3	3	3	4	3	3	3	3	3	3	3	3	3	3	3	3	3	3	3	3	3
12163	466.67	435	407	400	540.67	430.33	439	570	468	490	425	452.67	461.33	537	500.5	502	530.33	450.5	475.5	452.67	468.33	418.67	479	413.67	512	530.67	667	468.33	532	470.5	549.5	568.33	511.33	447	612.33	523.67	492.33	438.67	421.67	497.33	1	1	0.33333	0.66667	1	1	1	1	1	0.66667	0.33333	1	1	1	0.66667	1	1	0.66667	0.66667	1	1	1	1	1	0.66667	1	0.33333	1	0.66667	0.66667	0.66667	1	1	0.66667	1	1	1	1	1	1	3	3	3	3	3	3	3	3	3	3	3	3	3	3	3	3	3	3	3	3	3	3	4	3	3	3	3	3	3	3	3	3	3	3	3	3	3	3	3	3
12170	535	532.67	470	504	465.33	469	478.33	505	459.67	512.5	488.33	514.33	455.33	548.33	515.33	589	562.5	536.33	483	477	596.33	503.33	503	429.33	496.5	452.5	427.5	552	635.33	419.5	510.67	545.67	504.33	571.67	583	532.33	547.67	538.67	496.67	547	1	1	0.66667	1	1	0.66667	1	0.66667	1	0.66667	1	1	1	1	1	0.33333	0.66667	1	1	1	1	1	1	1	0.66667	0.66667	0.66667	1	1	0.66667	1	1	1	1	1	1	1	1	1	1	3	3	3	3	3	3	3	3	3	3	3	3	3	3	3	3	3	3	3	3	3	3	4	3	3	3	3	3	3	3	3	3	3	3	3	3	3	3	3	3
12171	560.33	518	523	550.67	426.33	528	748	619.5	484	543.5	550	490.33	496.33	574	493.33	562	474.67	616.33	538	475	558	546.33	532	541	632	613	523	560.5	570.33	512	635.33	507	477	655	573.33	581	516	512	542.5	534.33	1	1	0.66667	1	1	1	0.33333	0.66667	1	0.66667	0.66667	1	1	0.66667	1	1	1	1	1	0.66667	1	1	1	1	0.33333	1	0.66667	0.66667	1	0.66667	1	1	0.66667	0.33333	1	0.66667	1	0.66667	0.66667	1	3	3	3	3	3	3	3	3	3	3	3	3	3	3	3	3	3	3	3	3	3	3	4	3	3	3	3	3	3	3	3	3	3	3	3	3	3	3	3	3
12172	565.33	655.33	581	526.67	616.67	648.33	717	733.33	539.33	628.5	664.67	696.33	575.67	705	670.67	706.5	693.67	672.5	754	636	650	544.5	554.67	666	569.5	636.33	NaN	656.67	510.5	563.5	764	771.5	674.5	629	679.67	651	617	692.5	704.67	710.5	1	1	0.33333	1	1	1	0.66667	1	1	0.66667	1	1	1	0.33333	1	0.66667	1	0.66667	0.66667	1	1	0.66667	0.75	1	0.66667	1	0	1	0.66667	0.66667	0.33333	0.66667	0.66667	0.66667	1	0.33333	0.66667	0.66667	1	0.66667	3	3	3	3	3	3	3	3	3	3	3	3	3	3	3	3	3	3	3	3	3	3	4	3	3	3	3	3	3	3	3	3	3	3	3	3	3	3	3	3
12174	617.67	503	464	521.67	558.33	578.33	599	623	486.67	594.5	610.33	546	547.67	507.33	666.67	687.33	452.67	515	494.67	502.33	642.67	534.67	581	645	549.67	658	690	611	558	664.5	734	608.5	534.67	588.67	662.5	463.33	538	484	550.67	600.33	1	1	0.66667	1	1	1	1	1	1	0.66667	1	1	1	1	1	1	1	1	1	1	1	1	0.75	0.66667	1	0.66667	0.66667	1	0.33333	0.66667	0.33333	0.66667	1	1	0.66667	1	1	0.66667	1	1	3	3	3	3	3	3	3	3	3	3	3	3	3	3	3	3	3	3	3	3	3	3	4	3	3	3	3	3	3	3	3	3	3	3	3	3	3	3	3	3
12175	449	571	426	360.67	469.67	469.67	520.5	430.33	449.33	490	488	532	406.5	585	453.67	545	449.67	514.33	458.67	482.33	609.33	507.33	455	486	427	540.33	505	492	514	496	626	618	495.33	449.5	565	413.5	505	476.33	447	429	1	1	0.66667	1	1	1	0.66667	1	1	0.33333	1	1	0.66667	1	1	0.33333	1	1	1	1	1	1	0.75	1	0.66667	1	0.66667	0.33333	1	0.66667	1	1	1	0.66667	1	0.66667	1	1	1	0.66667	3	3	3	3	3	3	3	3	3	3	3	3	3	3	3	3	3	3	3	3	3	3	4	3	3	3	3	3	3	3	3	3	3	3	3	3	3	3	3	3
12176	453.67	526.67	523	390.67	430.33	544.33	625.67	383.33	507.67	450	459	470.33	522.33	516	531.33	468	585.33	530.33	538.5	512	520	508	568.5	508.33	499.5	430.5	517.33	474	483	416	578	565.5	536.67	467	518.33	552.5	565.33	645.67	509	535	1	1	0.66667	1	1	1	1	1	1	0.33333	0.66667	1	1	0.66667	1	0.66667	1	1	0.66667	1	1	1	1	1	0.66667	0.66667	1	1	1	0.66667	0.66667	0.66667	1	0.66667	1	0.66667	1	1	1	1	3	3	3	3	3	3	3	3	3	3	3	3	3	3	3	3	3	3	3	3	3	3	4	3	3	3	3	3	3	3	3	3	3	3	3	3	3	3	3	3
12177	503	487.67	430.5	510.67	454.67	589	527.67	470	430.67	392.5	500.33	472.33	462	579	447.67	541.33	511.67	485.67	460.33	416.67	488.33	455.67	505	446.33	414	542	515	484.67	538.67	546	606.5	502	500	524	562	526.67	464	538.33	498	486.67	1	1	0.66667	1	1	1	1	1	1	0.66667	1	1	1	1	1	1	1	1	1	1	1	1	1	1	0.66667	1	1	1	1	0.33333	0.66667	1	1	0.33333	1	1	1	1	0.66667	1	3	3	3	3	3	3	3	3	3	3	3	3	3	3	3	3	3	3	3	3	3	3	4	3	3	3	3	3	3	3	3	3	3	3	3	3	3	3	3	3
12178	419	532.5	508	497	514.67	547.33	566.33	590.33	500.67	518	553.67	578.67	505.33	586	577	542.33	637.5	522.5	646	669.33	650.67	482.5	561	611	571	679.67	739.5	598.5	588	613.5	727	646.67	580.33	686.67	674.67	504	606	595.67	647	588.33	1	0.66667	0.66667	1	1	1	1	1	1	0.66667	1	1	1	1	1	1	0.66667	0.66667	0.66667	1	1	0.66667	1	0.66667	0.66667	1	0.66667	0.66667	0.66667	0.66667	0.66667	1	1	1	1	0.33333	1	1	0.66667	1	3	3	3	3	3	3	3	3	3	3	3	3	3	3	3	3	3	3	3	3	3	3	4	3	3	3	3	3	3	3	3	3	3	3	3	3	3	3	3	3
12179	606.33	588	493.5	484.33	561.33	586.33	642.33	556.33	597.33	535	533.67	551.67	579.33	582.33	743.5	590	491.67	643.67	586.33	588	647	453	468.5	604.67	617.5	554.33	677	644	518	400	569	528.5	547.67	528.5	513.67	550.5	611.67	613.33	582.33	497.67	1	1	0.66667	1	1	1	1	1	1	0.33333	1	1	1	1	0.66667	0.66667	1	1	1	0.66667	1	1	1	1	0.66667	1	0.66667	1	0.33333	0.33333	0.66667	0.66667	1	0.66667	1	0.66667	1	1	1	1	3	3	3	3	3	3	3	3	3	3	3	3	3	3	3	3	3	3	3	3	3	3	4	3	3	3	3	3	3	3	3	3	3	3	3	3	3	3	3	3
12180	453.67	434.33	297	415.33	386.67	384.67	413.67	366.5	389.67	410.5	477	397.33	469.67	403	480	466.33	447	417.5	440.5	480.33	387.5	378.67	397.5	429.33	327	411.67	384	321.67	374.67	449.5	472.5	421	407.67	454.5	459	385.33	476	410	428	419.5	1	1	0.33333	1	1	1	1	0.66667	1	0.66667	1	1	1	0.66667	0.66667	1	1	0.66667	0.66667	1	0.66667	1	1	1	0.33333	1	0.33333	1	1	0.66667	0.66667	1	1	0.66667	1	1	1	1	1	0.66667	3	3	3	3	3	3	3	3	3	3	3	3	3	3	3	3	3	3	3	3	3	3	4	3	3	3	3	3	3	3	3	3	3	3	3	3	3	3	3	3
12181	563.67	518.33	580	557	617.33	559	655	742.5	588.5	584	552	703.67	463.33	621.33	413.5	522	697.5	559.33	650.33	636	557.5	506	515	577	534.5	578.33	769.33	612	593	575	615.5	558.33	577.67	548.5	606.67	774.5	536.33	701	614.67	571	1	1	0.66667	0.66667	1	1	0.66667	0.66667	0.66667	0.66667	1	1	1	1	0.66667	0.33333	0.66667	1	1	1	0.66667	0.66667	1	0.66667	0.66667	1	1	0.66667	1	0.33333	0.66667	1	1	0.66667	1	0.66667	1	1	1	1	3	3	3	3	3	3	3	3	3	3	3	3	3	3	3	3	3	3	3	3	3	3	4	3	3	3	3	3	3	3	3	3	3	3	3	3	3	3	3	3
12184	655	633.67	682	546.67	619.67	562.33	713.33	563.33	427	505	721.33	635.33	487	628.5	603.5	576	657	486	677.5	641	635	643	566.25	661.67	542	694.67	512.5	532	529.67	493	615.5	642.33	670	657	598	817	599.67	583.67	555.5	702	1	1	0.66667	1	1	1	1	1	0.33333	0.66667	1	1	1	0.66667	0.66667	0.66667	1	1	0.66667	1	0.66667	0.66667	1	1	0.66667	1	0.66667	1	1	0.33333	0.66667	1	0.66667	0.66667	0.66667	0.66667	1	1	0.66667	1	3	3	3	3	3	3	3	3	3	3	3	3	3	3	3	3	3	3	3	3	3	3	4	3	3	3	3	3	3	3	3	3	3	3	3	3	3	3	3	3
12186	538.67	513	516	571	532.5	572	547	501	526.67	494.5	519	547.33	545	696.5	581.67	580.5	639.67	573.33	574	518.33	542	601	570	465.67	563	517.33	543	569.67	638.33	545	695	465.5	669	533	506	549.5	602.33	605	465.33	599	1	1	0.66667	1	0.66667	0.66667	0.66667	0.66667	1	0.66667	1	1	1	0.66667	1	0.66667	1	1	1	1	0.66667	1	1	1	0.66667	1	0.66667	1	1	0.66667	0.66667	0.66667	1	0.66667	1	0.66667	1	1	1	1	3	3	3	3	3	3	3	3	3	3	3	3	3	3	3	3	3	3	3	3	3	3	4	3	3	3	3	3	3	3	3	3	3	3	3	3	3	3	3	3
12187	606.33	456	609.5	500	469	552	619.67	644	484.33	597	523.33	558	483.33	626.33	728	618	663	583	542.33	566	513	541.33	562	518.33	536.5	610.33	780.5	494	520	669	750	567	570.67	521.5	659.67	546	651.33	542.67	621.67	648.67	1	0.66667	0.66667	1	1	1	1	0.66667	1	0.66667	1	1	1	1	1	1	0.66667	1	1	1	0.66667	1	0.5	1	0.66667	1	0.66667	1	0.33333	1	0.66667	0.66667	1	0.66667	1	0.66667	1	1	1	1	3	3	3	3	3	3	3	3	3	3	3	3	3	3	3	3	3	3	3	3	3	3	4	3	3	3	3	3	3	3	3	3	3	3	3	3	3	3	3	3
12188	595.33	570	513.5	480.67	552	553	557.5	571.67	602.33	648.5	560.33	579.33	556.67	714	675	570	591.33	558	688.33	548.67	623.33	467	540.33	450.5	419	490.33	568	671.33	529.33	588	652.5	609.67	602.33	577	598.5	526.5	602.33	552.67	655	638.67	1	1	0.66667	1	1	0.66667	0.66667	1	1	0.66667	1	1	1	1	1	0.66667	1	1	1	1	1	1	0.75	0.66667	0.33333	1	0.66667	1	1	0.33333	0.66667	1	1	1	0.66667	0.66667	1	1	1	1	3	3	3	3	3	3	3	3	3	3	3	3	3	3	3	3	3	3	3	3	3	3	4	3	3	3	3	3	3	3	3	3	3	3	3	3	3	3	3	3
12189	476.33	600.33	510.5	561	555.67	587.5	552.33	650	502.33	695	614	606	562	496	603	549	529	521	522.33	467.5	560.67	573.5	487	606.5	520	637	634	470	613.67	586	NaN	653	569.33	583.5	531.5	600.5	593	643.5	532.33	517.67	1	1	0.66667	0.66667	1	0.66667	1	1	1	0.33333	0.66667	0.66667	1	0.66667	1	1	1	1	1	0.66667	1	0.66667	0.5	0.66667	0.66667	1	0.66667	0.66667	1	0.66667	0	0.66667	1	0.66667	0.66667	0.66667	1	0.66667	1	1	3	3	3	3	3	3	3	3	3	3	3	3	3	3	3	3	3	3	3	3	3	3	4	3	3	3	3	3	3	3	3	3	3	3	3	3	3	3	3	3
12191	574.67	553	521	478.33	415.5	465.67	473	427	508.67	564.5	521.67	500.67	446.67	551	426.5	581	505.67	487.67	588.67	584.67	565	622	454.25	583	475	485.67	529.67	426.5	473.5	490.5	596	571.5	576.33	506	537.33	596	520.5	650.5	610	482.33	1	0.66667	0.66667	1	0.66667	1	1	0.66667	1	0.66667	1	1	1	1	0.66667	0.66667	1	1	1	1	0.33333	0.33333	1	1	0.33333	1	1	0.66667	0.66667	0.66667	0.66667	0.66667	1	1	1	0.33333	0.66667	0.66667	1	1	3	3	3	3	3	3	3	3	3	3	3	3	3	3	3	3	3	3	3	3	3	3	4	3	3	3	3	3	3	3	3	3	3	3	3	3	3	3	3	3
12193	NaN	NaN	NaN	NaN	NaN	NaN	559	NaN	482	462	480	NaN	NaN	NaN	NaN	NaN	NaN	NaN	NaN	NaN	NaN	NaN	NaN	NaN	NaN	NaN	504	NaN	464	NaN	NaN	NaN	NaN	NaN	385	NaN	NaN	NaN	471	525	0	0	0	0	0	0	0.33333	0	0.33333	0.33333	0.66667	0	0	0	0	0	0	0	0	0	0	0	0	0	0	0	0.33333	0	0.33333	0	0	0	0	0	0.33333	0	0	0	0.33333	0.33333	3	3	3	3	3	3	3	3	3	3	3	3	3	3	3	3	3	3	3	3	3	3	4	3	3	3	3	3	3	3	3	3	3	3	3	3	3	3	3	3
12197	579.33	650.67	646.5	551.33	518.33	659.33	654	492.5	409.67	449.5	504.5	594.67	664.33	719	530.5	818	568	654	543.5	580.67	522	549	617.5	527	502.5	654.67	589.33	505.33	569	508	869	540.5	711.5	713.5	568.33	793	577.33	634.5	628	613.67	1	1	0.66667	1	1	1	1	0.66667	1	0.66667	0.66667	1	1	0.66667	0.66667	0.33333	0.66667	1	0.66667	1	0.66667	1	0.5	1	0.66667	1	1	1	1	0.66667	0.33333	0.66667	0.66667	0.66667	1	0.33333	1	0.66667	0.66667	1	3	3	3	3	3	3	3	3	3	3	3	3	3	3	3	3	3	3	3	3	3	3	4	3	3	3	3	3	3	3	3	3	3	3	3	3	3	3	3	3
12199	525.5	690.67	493.5	531	484	558.33	568	582.5	538.67	466.5	701.33	534.33	568.33	748	684.33	599.33	602	567	537	492.33	699	579.33	550.5	511.5	518	615	718.5	574.67	641.33	759	571	731.33	536	645	648.5	621	709	614.5	590	650.67	0.66667	1	0.66667	1	1	1	0.66667	0.66667	1	0.66667	1	1	1	0.33333	1	1	0.66667	1	1	1	1	1	1	0.66667	0.66667	1	0.66667	1	1	0.33333	0.33333	1	0.66667	0.33333	0.66667	0.66667	0.33333	0.66667	1	1	3	3	3	3	3	3	3	3	3	3	3	3	3	3	3	3	3	3	3	3	3	3	4	3	3	3	3	3	3	3	3	3	3	3	3	3	3	3	3	3
12205	588.67	555.67	636	551.33	488	490.33	528.5	615.67	461.33	513.5	659.33	597	511.67	638.33	596	591.33	578	556	590.67	532.67	556	609.33	469.5	445.5	518	533.33	675.33	523	650	543	NaN	553.5	610.67	593	598.33	657.5	623.5	604	545.67	637	1	1	0.33333	1	1	1	0.66667	1	1	0.66667	1	1	1	1	1	1	1	1	1	1	1	1	0.5	0.66667	0.66667	1	1	1	0.66667	0.66667	0	0.66667	1	1	1	0.66667	0.66667	0.66667	1	0.66667	3	3	3	3	3	3	3	3	3	3	3	3	3	3	3	3	3	3	3	3	3	3	4	3	3	3	3	3	3	3	3	3	3	3	3	3	3	3	3	3
12207	451.67	482.5	485.5	400.33	466	487.67	487	494	449	518	568.67	586	501.67	544.33	517.67	571.33	538.67	514	568	559	556	436.33	451	393.33	479.5	502	702.5	523	497	444	613	579.33	686	592.33	493.67	522.67	602.33	680	598.33	517.67	1	0.66667	0.66667	1	1	1	1	1	1	0.66667	1	1	1	1	1	1	1	1	1	1	1	1	0.75	1	0.66667	0.66667	0.66667	1	1	0.33333	1	1	1	1	1	1	1	0.66667	1	1	3	3	3	3	3	3	3	3	3	3	3	3	3	3	3	3	3	3	3	3	3	3	4	3	3	3	3	3	3	3	3	3	3	3	3	3	3	3	3	3
12208	546	497.67	697.5	434	472	586.5	482.5	537.33	514.67	486	484	515	522	515	516	548.67	541	522.33	551	517.67	616.5	510	452	473.67	653	552.33	580.33	485.67	634.33	536.5	589.5	535.5	534	629.67	521	545	547.67	571.5	475.67	434.5	1	1	0.66667	1	1	0.66667	0.66667	1	1	0.66667	1	1	1	0.66667	0.66667	1	1	1	1	1	0.66667	1	0.75	1	0.66667	1	1	1	1	0.66667	0.66667	0.66667	1	1	0.66667	0.66667	1	0.66667	1	0.66667	3	3	3	3	3	3	3	3	3	3	3	3	3	3	3	3	3	3	3	3	3	3	4	3	3	3	3	3	3	3	3	3	3	3	3	3	3	3	3	3
12209	521	514.67	629	508	528.33	564.67	646	609	545.33	538	471.67	579	499.33	760.5	580.33	540.5	514	514.67	606	554	628	680	616.5	638	472.5	586.67	730.5	588.67	579.67	585.67	615	584.67	598.67	541.67	584	515	594.5	470	555.67	553	0.66667	1	0.33333	1	1	1	1	1	1	0.66667	1	1	1	0.66667	1	0.66667	0.66667	1	1	0.66667	0.66667	0.66667	1	1	0.66667	1	0.66667	1	1	1	1	1	1	1	1	1	0.66667	0.33333	1	1	3	3	3	3	3	3	3	3	3	3	3	3	3	3	3	3	3	3	3	3	3	3	4	3	3	3	3	3	3	3	3	3	3	3	3	3	3	3	3	3
12210	535	587	746	503	545	510	649.67	490.33	542.33	456.5	589.67	584	532.67	575.5	689.33	612.67	638.67	539.33	602.33	625.5	535.67	501.67	583.5	513.33	476	508.67	754	486.33	556.67	531.5	NaN	620	553.67	674	595.67	570.33	613.67	580.33	676.67	585.5	0.33333	0.66667	0.66667	1	1	0.33333	1	1	1	0.66667	1	1	1	0.66667	1	1	1	1	1	0.66667	1	1	1	1	0.33333	1	0.33333	1	1	0.66667	0	1	1	1	1	1	1	1	1	0.66667	3	3	3	3	3	3	3	3	3	3	3	3	3	3	3	3	3	3	3	3	3	3	4	3	3	3	3	3	3	3	3	3	3	3	3	3	3	3	3	3
12213	741.33	758.33	635	683	654.67	812.5	709.33	637	643.33	589.5	754.33	653.67	667.67	840	737	582	658	628.5	922	646	720.67	752.67	643	581	605.5	739.5	735	688.5	679.33	691	819	648	732	782	739	622.5	650	741	706	730.67	1	1	0.66667	1	1	0.66667	1	0.66667	1	0.66667	1	1	1	1	1	0.66667	1	0.66667	0.33333	0.66667	1	1	1	0.33333	0.66667	0.66667	0.66667	0.66667	1	1	0.66667	1	1	1	0.66667	0.66667	1	0.66667	0.66667	1	3	3	3	3	3	3	3	3	3	3	3	3	3	3	3	3	3	3	3	3	3	3	4	3	3	3	3	3	3	3	3	3	3	3	3	3	3	3	3	3
12214	613.5	560	705	653	626	632.5	744.5	676	550.67	675.5	655	498	611	537.33	601	634.5	643	636	612.33	596	583	625.5	513	505.67	518	586.67	661	625.67	619.67	573.5	648.5	513	733.5	610.67	646	698	689	665.5	695.67	679.67	0.66667	1	0.33333	1	1	0.66667	0.66667	1	1	0.66667	1	0.66667	1	1	0.66667	0.66667	1	0.66667	1	1	1	0.66667	0.75	1	0.33333	1	0.66667	1	1	0.66667	0.66667	0.33333	0.66667	1	0.66667	0.33333	1	0.66667	1	1	3	3	3	3	3	3	3	3	3	3	3	3	3	3	3	3	3	3	3	3	3	3	4	3	3	3	3	3	3	3	3	3	3	3	3	3	3	3	3	3
12215	582	587.33	613	578.33	651.5	597.5	626	547	604.67	507	616.67	538.67	577.67	615.67	600	628	600.33	652.5	565.33	566.33	718	621.33	628.25	652	565.5	615.33	672	616.5	636.67	615.67	685.33	618.33	609.33	569.33	523.5	570	565	612.5	600.33	556.33	1	1	0.66667	1	0.66667	0.66667	0.66667	1	1	0.66667	1	1	1	1	1	1	1	0.66667	1	1	0.33333	1	1	1	0.66667	1	1	0.66667	1	1	1	1	1	1	0.66667	0.66667	1	0.66667	1	1	3	3	3	3	3	3	3	3	3	3	3	3	3	3	3	3	3	3	3	3	3	3	4	3	3	3	3	3	3	3	3	3	3	3	3	3	3	3	3	3
12216	593.5	553	494	497.33	481	593.33	572	566.67	530.5	570.5	544.33	437	478.67	544	522.33	535	569	518.67	462	426.33	533	495.33	555	497	613	596	522	741.5	514.5	669	612.67	573.33	528	662.5	535.67	567	538.33	491	546.33	515.67	0.66667	1	0.66667	1	1	1	1	1	0.66667	0.66667	1	1	1	0.33333	1	1	1	1	1	1	0.66667	1	1	1	0.66667	1	0.66667	0.66667	0.66667	0.66667	1	1	1	0.66667	1	0.66667	1	1	1	1	3	3	3	3	3	3	3	3	3	3	3	3	3	3	3	3	3	3	3	3	3	3	4	3	3	3	3	3	3	3	3	3	3	3	3	3	3	3	3	3
12217	NaN	NaN	NaN	NaN	612	NaN	NaN	497	NaN	532	677	NaN	NaN	479	NaN	NaN	NaN	NaN	NaN	NaN	602	NaN	NaN	NaN	554	NaN	NaN	NaN	NaN	NaN	NaN	NaN	NaN	636	NaN	NaN	NaN	NaN	NaN	NaN	0	0	0	0	0.33333	0	0	0.33333	0	0.66667	0.33333	0	0	0.33333	0	0	0	0	0	0	0.33333	0	0	0	0.66667	0	0	0	0	0	0	0	0	0.33333	0	0	0	0	0	0	3	3	3	3	3	3	3	3	3	3	3	3	3	3	3	3	3	3	3	3	3	3	4	3	3	3	3	3	3	3	3	3	3	3	3	3	3	3	3	3
12220	453.33	514	385.5	416	440.67	530	459	478.5	431.33	423	430.67	406	446.67	516.5	462	515.67	416	444	421	467	446	447.67	438	473	449.5	439.33	467.5	422	458.33	441.5	463	463	415.5	433	453.67	438.67	499.33	502	369	480.33	1	1	0.66667	1	1	0.66667	0.66667	0.66667	1	0.33333	1	0.66667	1	0.66667	0.66667	1	1	1	1	1	1	1	1	1	0.66667	1	0.66667	1	1	0.66667	1	0.66667	0.66667	1	1	1	1	1	0.66667	1	3	3	3	3	3	3	3	3	3	3	3	3	3	3	3	3	3	3	3	3	3	3	4	3	3	3	3	3	3	3	3	3	3	3	3	3	3	3	3	3
12221	570.33	508	495	493.33	566.33	613.33	811	575.33	479.33	506.5	666	578.67	660	630.5	535.67	604.67	672.33	593.67	643.67	554.33	NaN	604	544.75	609.67	667	556	489	638.67	509	640.5	702	657.33	733	NaN	600	755.67	632.67	699	572.33	652.33	1	0.66667	0.66667	1	1	1	0.33333	1	1	0.66667	1	1	1	0.66667	1	1	1	1	1	1	0	1	1	1	0.33333	1	0.66667	1	1	0.66667	1	1	0.66667	0	1	1	1	0.66667	1	1	3	3	3	3	3	3	3	3	3	3	3	3	3	3	3	3	3	3	3	3	3	3	4	3	3	3	3	3	3	3	3	3	3	3	3	3	3	3	3	3
12223	672.5	597.5	763.5	653	689	839	768	736	687	815.5	812	733.67	685	844	620.5	768.67	747.5	654.5	881	747	845.5	818.33	770.5	518	NaN	608.33	771	669.33	523.5	768.5	737	843	684.67	675	858.5	827.5	787	739.67	788	863	0.66667	0.66667	0.66667	0.66667	1	1	0.66667	1	0.66667	0.66667	1	1	1	0.66667	0.66667	1	0.66667	0.66667	0.33333	0.66667	0.66667	1	0.5	0.33333	0	1	0.33333	1	0.66667	0.66667	0.33333	0.66667	1	0.66667	0.66667	0.66667	0.33333	1	0.66667	0.33333	3	3	3	3	3	3	3	3	3	3	3	3	3	3	3	3	3	3	3	3	3	3	4	3	3	3	3	3	3	3	3	3	3	3	3	3	3	3	3	3
12224	503.67	522	419	589	649.5	534.33	520.5	620.33	517	551	630.67	500	466.33	679.5	619.33	682	470	530.67	660.33	548.33	652.5	459	566.67	494.5	592	559	714	628	728.5	501.5	690	646.5	522.33	618.67	614	674.5	500.5	530.67	659	560	1	0.33333	0.33333	1	0.66667	1	0.66667	1	0.66667	0.66667	1	1	1	0.66667	1	0.66667	1	1	1	1	0.66667	0.66667	0.75	0.66667	0.66667	0.66667	0.33333	1	0.66667	0.66667	1	0.66667	1	1	0.66667	0.66667	0.66667	1	1	1	3	3	3	3	3	3	3	3	3	3	3	3	3	3	3	3	3	3	3	3	3	3	4	3	3	3	3	3	3	3	3	3	3	3	3	3	3	3	3	3
12225	541	429	642	564.67	445	493.33	498.33	446.5	445	551.5	522.33	566	445.67	667	480.5	625	519	591	468	482	574	525.33	489.5	476.5	426	484.67	593.33	666.5	529.67	546.67	517.33	575	501	554.33	434.67	593.67	591.67	543	481.5	536	1	0.33333	0.33333	1	1	1	1	0.66667	0.66667	0.66667	1	1	1	0.66667	0.66667	0.66667	0.66667	0.33333	1	1	1	1	1	0.66667	0.33333	1	1	0.66667	1	1	1	1	1	1	1	1	1	0.66667	0.66667	0.33333	3	3	3	3	3	3	3	3	3	3	3	3	3	3	3	3	3	3	3	3	3	3	4	3	3	3	3	3	3	3	3	3	3	3	3	3	3	3	3	3
12230	521	536.33	528	529.33	543	496	519	578.67	499.33	496.5	605	648.33	574.33	535	625.67	553.33	546.67	581.67	530.33	585.5	476	564	617.25	552	582	550	566.67	447.5	448	596.33	573	663.33	587.67	571	575	618.33	632.33	643	561.33	636	1	1	0.66667	1	1	1	1	1	1	0.66667	1	1	1	1	1	1	1	1	1	0.66667	1	1	1	1	0.33333	0.66667	1	0.66667	0.66667	1	1	1	1	1	0.33333	1	1	1	1	0.66667	3	3	3	3	3	3	3	3	3	3	3	3	3	3	3	3	3	3	3	3	3	3	4	3	3	3	3	3	3	3	3	3	3	3	3	3	3	3	3	3
12232	545.5	481.67	333	488.67	425.33	554.33	522	434	489	531.5	487.33	566.67	492.67	500	524.33	482	481.67	553	559	580.67	640	528.5	480.5	502	553	476.67	551	500.33	481.33	487	536.67	521	524	522.33	505.5	567.33	539.33	499.5	484	541	0.66667	1	0.33333	1	1	1	1	0.66667	1	0.66667	1	1	1	1	1	0.66667	1	1	0.66667	1	0.33333	0.66667	1	1	0.66667	1	1	1	1	0.66667	1	0.66667	1	1	0.66667	1	1	0.66667	1	1	3	3	3	3	3	3	3	3	3	3	3	3	3	3	3	3	3	3	3	3	3	3	4	3	3	3	3	3	3	3	3	3	3	3	3	3	3	3	3	3
12234	598.33	610	558	629.67	604.33	640.67	688	530.33	524.67	625	628	642.33	538.33	696	769.5	536	634.33	670.33	646.33	592.67	588	588	637.75	547.33	583.5	645	690.5	610	591.33	694	817	686	625.33	607	715	707.5	647.67	632.33	628	670.67	1	1	0.66667	1	1	1	1	1	1	0.33333	0.33333	1	1	0.66667	0.66667	0.66667	1	1	1	1	1	1	1	1	0.66667	1	0.66667	1	1	1	0.33333	0.33333	1	0.33333	0.33333	0.66667	1	1	0.66667	1	3	3	3	3	3	3	3	3	3	3	3	3	3	3	3	3	3	3	3	3	3	3	4	3	3	3	3	3	3	3	3	3	3	3	3	3	3	3	3	3
12236	528	608.5	589.5	517	488	550.5	644.67	541	513	638.5	655.67	578	420.33	562	582.67	528	493	655	618.67	552.67	619	434.5	611	476.5	460.5	565.5	608.33	468	539	557	613	582.67	647.5	526.67	595.5	775	601.67	678.33	508.33	550.67	0.66667	0.66667	0.66667	1	1	0.66667	1	1	0.66667	0.66667	1	1	1	1	1	0.33333	1	1	1	1	0.33333	0.66667	1	0.66667	0.66667	0.66667	1	0.66667	1	0.66667	0.66667	1	0.66667	1	0.66667	0.33333	1	1	1	1	3	3	3	3	3	3	3	3	3	3	3	3	3	3	3	3	3	3	3	3	3	3	4	3	3	3	3	3	3	3	3	3	3	3	3	3	3	3	3	3
12237	571.5	458	526	508	518.67	534.33	478.33	480.33	452.67	544	499	582.67	570.33	526	614.33	555	559	534	541.67	486	554.33	516	485.75	473	583	489.67	610.5	491.67	523.67	568	661.5	546.67	548.33	582.33	533.67	620.5	590.33	545	515.67	580.33	0.66667	0.66667	0.66667	1	1	1	1	1	1	0.66667	1	1	1	1	1	0.66667	1	1	1	1	1	1	1	1	0.66667	1	0.66667	1	1	0.66667	0.66667	1	1	1	1	0.66667	1	0.66667	1	1	3	3	3	3	3	3	3	3	3	3	3	3	3	3	3	3	3	3	3	3	3	3	4	3	3	3	3	3	3	3	3	3	3	3	3	3	3	3	3	3
12238	NaN	NaN	NaN	NaN	NaN	NaN	NaN	NaN	NaN	404	NaN	637	NaN	NaN	NaN	NaN	NaN	NaN	NaN	NaN	NaN	NaN	NaN	NaN	273	NaN	332	NaN	607	NaN	619	697	NaN	NaN	NaN	NaN	NaN	NaN	NaN	NaN	0	0	0	0	0	0	0	0	0	0.33333	0	0.33333	0	0	0	0	0	0	0	0	0	0	0	0	0.33333	0	0.33333	0	0.33333	0	0.33333	0.33333	0	0	0	0	0	0	0	0	3	3	3	3	3	3	3	3	3	3	3	3	3	3	3	3	3	3	3	3	3	3	4	3	3	3	3	3	3	3	3	3	3	3	3	3	3	3	3	3
12240	521	544.67	419.5	468.67	546.33	545.33	549.33	459.33	518	441	547	544	557.67	690.33	662	620	519.67	508.67	605.33	503.33	602.33	448	537	545.67	494.5	552	457	445.67	522	457.67	735.5	520	502	582.5	522	635	625.33	571.67	566.33	592	1	1	0.66667	1	1	1	1	1	1	0.66667	0.66667	1	1	1	0.66667	1	1	1	1	1	1	0.66667	1	1	0.66667	1	1	1	1	1	0.66667	0.66667	1	0.66667	0.66667	1	1	1	1	0.66667	3	3	3	3	3	3	3	3	3	3	3	3	3	3	3	3	3	3	3	3	3	3	4	3	3	3	3	3	3	3	3	3	3	3	3	3	3	3	3	3
12241	552.33	455.67	578	555.33	503	576.5	566	471.67	505.67	375.5	597.33	555.33	504.67	580.33	601.67	576.33	489	483.33	590.33	532.67	438	480.5	518.75	534.5	502	604	610.5	505.33	525.5	495	682	539.33	589.67	571	534.33	422.5	525.33	572	517.67	574	1	1	0.66667	1	1	0.66667	1	1	1	0.66667	1	1	1	1	1	1	0.66667	1	1	1	1	0.66667	1	0.66667	0.66667	0.66667	0.66667	1	0.66667	0.33333	0.66667	1	1	1	1	0.66667	1	0.66667	1	1	3	3	3	3	3	3	3	3	3	3	3	3	3	3	3	3	3	3	3	3	3	3	4	3	3	3	3	3	3	3	3	3	3	3	3	3	3	3	3	3
12242	NaN	NaN	NaN	NaN	NaN	NaN	NaN	NaN	NaN	545	NaN	NaN	NaN	NaN	NaN	NaN	NaN	NaN	NaN	NaN	NaN	NaN	NaN	NaN	541	533.5	553	472	NaN	505	NaN	NaN	NaN	NaN	576	NaN	NaN	NaN	NaN	NaN	0	0	0	0	0	0	0	0	0	0.33333	0	0	0	0	0	0	0	0	0	0	0	0	0	0	0.33333	0.66667	1	0.33333	0	0.33333	0	0	0	0	0.66667	0	0	0	0	0	3	3	3	3	3	3	3	3	3	3	3	3	3	3	3	3	3	3	3	3	3	3	4	3	3	3	3	3	3	3	3	3	3	3	3	3	3	3	3	3
12243	398	413.33	379.5	434.67	449.67	393	467	443.33	406.33	422	422.33	410	425	474	414	391	460.67	466.5	433.67	434.33	429.67	398.67	382	399	447	398.33	463.67	453	442	510	499	482.67	416.33	561	396	440.67	474.67	379.67	450	407.67	1	1	0.66667	1	1	1	1	1	1	0.66667	1	1	1	1	0.66667	1	1	0.66667	1	1	1	1	0.75	1	0.66667	1	1	1	1	0.33333	0.66667	1	1	0.66667	0.33333	1	1	1	1	1	3	3	3	3	3	3	3	3	3	3	3	3	3	3	3	3	3	3	3	3	3	3	4	3	3	3	3	3	3	3	3	3	3	3	3	3	3	3	3	3
12244	490.33	457	394.5	518	441.67	403.5	439	549.67	370	418	471	461.5	475	510	519	517.5	529	529.67	513.67	565.33	483	488.67	580.75	444.33	630.5	472	494	492.33	461.33	417.5	413	586.5	562.5	612.33	530.5	437	486.67	584	563	556.67	1	1	0.66667	1	1	0.66667	1	1	1	0.66667	0.66667	0.66667	1	0.33333	1	0.66667	1	1	1	1	0.66667	1	1	1	0.66667	1	1	1	1	0.66667	0.33333	0.66667	0.66667	1	0.66667	0.33333	1	1	1	1	3	3	3	3	3	3	3	3	3	3	3	3	3	3	3	3	3	3	3	3	3	3	4	3	3	3	3	3	3	3	3	3	3	3	3	3	3	3	3	3
12247	501.33	549	505	491.67	439	451	424.67	506.67	453.67	389.5	547	531	476.67	511.67	481	474.5	501.67	505.33	381.5	503.67	469.67	426	573.67	458.33	396.5	444.33	493	441	435	463.33	455.5	419	478	412	528	505.67	563	490	493	442.33	1	1	0.66667	1	1	1	1	1	1	0.66667	0.66667	0.66667	1	1	1	0.66667	1	1	0.66667	1	1	1	0.75	1	0.66667	1	1	1	1	1	0.66667	0.33333	1	0.33333	1	1	1	1	1	1	3	3	3	3	3	3	3	3	3	3	3	3	3	3	3	3	3	3	3	3	3	3	4	3	3	3	3	3	3	3	3	3	3	3	3	3	3	3	3	3
12249	623	629.67	697	717	647.33	675.67	610.5	549.33	534.5	550	625.5	597.5	556	666.5	610.33	617	517	664	671.67	666.67	594.33	685.5	642	565	643	696.5	NaN	724.67	542.5	691	NaN	679.33	546	656	651	655	641.67	677.33	556	564.33	0.66667	1	0.66667	1	1	1	0.66667	1	0.66667	0.66667	0.66667	0.66667	1	0.66667	1	0.66667	1	0.66667	1	1	1	0.66667	0.75	1	0.33333	0.66667	0	1	0.66667	0.66667	0	1	0.33333	0.33333	0.66667	0.66667	1	1	0.66667	1	3	3	3	3	3	3	3	3	3	3	3	3	3	3	3	3	3	3	3	3	3	3	4	3	3	3	3	3	3	3	3	3	3	3	3	3	3	3	3	3
12250	627	581.67	625.5	520.67	441.5	518	480.67	588.67	469	639	603.67	446.5	454.67	509	798	678	473.33	546.33	508	576.67	565.5	494.67	607.75	487.67	610	534.67	696.5	790	623	687.33	621.67	536.67	529.33	546	599.33	635	518.5	553.67	642	575	0.66667	1	0.66667	1	0.66667	1	1	1	1	0.66667	1	0.66667	1	0.66667	0.33333	0.66667	1	1	0.66667	1	0.66667	1	1	1	0.66667	1	0.66667	0.66667	1	1	1	1	1	0.33333	1	0.33333	0.66667	1	1	1	3	3	3	3	3	3	3	3	3	3	3	3	3	3	3	3	3	3	3	3	3	3	4	3	3	3	3	3	3	3	3	3	3	3	3	3	3	3	3	3
12251	503	597.67	577	614.33	573	578	600.5	602.33	519	583.5	411	477	441.33	417	637.33	542	474.33	648	450	588	675.5	470.5	658.5	481	558.5	647.33	766.5	622	572	576.5	640	557	525.5	668.33	617.5	704.5	444.5	468	718	698	1	1	0.66667	1	1	1	0.66667	1	1	0.66667	1	0.66667	1	0.33333	1	0.66667	1	1	0.66667	0.66667	0.66667	0.66667	1	0.33333	0.66667	1	0.66667	0.66667	0.33333	0.66667	0.66667	1	0.66667	1	0.66667	0.66667	0.66667	0.66667	0.66667	1	3	3	3	3	3	3	3	3	3	3	3	3	3	3	3	3	3	3	3	3	3	3	4	3	3	3	3	3	3	3	3	3	3	3	3	3	3	3	3	3
12257	479.33	500.33	538	498	464.33	489.67	482.67	487.67	530	487	482.33	511.33	468.33	501	480.33	525.33	509	504.33	506.33	471	548.5	473	537.5	522.67	514.5	498	531.5	502	474	503.67	474	493.33	505	504.33	475.5	576.33	527.33	471.67	490	486.67	1	1	0.33333	0.66667	1	1	1	1	1	0.66667	1	1	1	1	1	1	1	1	1	1	0.66667	0.66667	1	1	0.66667	0.66667	0.66667	1	1	1	0.66667	1	1	1	0.66667	1	1	1	1	1	3	3	3	3	3	3	3	3	3	3	3	3	3	3	3	3	3	3	3	3	3	3	4	3	3	3	3	3	3	3	3	3	3	3	3	3	3	3	3	3
12258	396.33	481.67	439	338.33	379	414.67	433	403.33	494.5	397.5	503.33	454	441.67	544.33	535	491	526	509.33	439	449.67	445.33	421.67	504.75	442	445.5	457	479.33	441.33	378.5	515	NaN	492.67	516.33	496	511.5	581	508.33	525.33	485.67	513	1	1	0.66667	1	1	1	1	1	0.66667	0.66667	1	1	1	1	1	1	0.66667	1	1	1	1	1	1	1	0.66667	1	1	1	0.66667	0.66667	0	1	1	0.33333	0.66667	1	1	1	1	1	3	3	3	3	3	3	3	3	3	3	3	3	3	3	3	3	3	3	3	3	3	3	4	3	3	3	3	3	3	3	3	3	3	3	3	3	3	3	3	3
12260	509	543	491	533.33	619.67	710.33	752.67	718.67	606.67	436	769	691.33	554	722	516.67	532.33	545.67	558.67	546.33	600.33	541.33	651.33	562.25	664.33	635.5	689.67	677.5	666.33	736.5	757	665	685.33	625	NaN	602	789.5	640	570.33	584	546.33	1	1	0.66667	1	1	1	1	1	1	0.33333	1	1	1	0.33333	1	1	1	1	1	1	1	1	1	1	0.66667	1	0.66667	1	0.66667	1	0.66667	1	1	0	0.66667	0.66667	1	1	1	1	3	3	3	3	3	3	3	3	3	3	3	3	3	3	3	3	3	3	3	3	3	3	4	3	3	3	3	3	3	3	3	3	3	3	3	3	3	3	3	3
12263	509	521.33	604.5	531.33	466.5	485.33	507.33	477	482.67	537.5	585	584.33	569	475.33	517.5	553.33	495	493	497	497	481.33	464	521.75	446.67	475.5	519	581.67	467	520.67	410	569	537	508.67	441.5	551.67	605	506.33	473.67	535.33	511.67	1	1	0.66667	1	0.66667	1	1	0.33333	1	0.66667	0.66667	1	1	1	0.66667	1	0.66667	1	1	0.66667	1	1	1	1	0.66667	1	1	1	1	1	1	0.66667	1	0.66667	1	0.66667	1	1	1	1	3	3	3	3	3	3	3	3	3	3	3	3	3	3	3	3	3	3	3	3	3	3	4	3	3	3	3	3	3	3	3	3	3	3	3	3	3	3	3	3
12264	708	635.5	577	547	560	525	496	589	556.67	659	601.67	601.33	511.67	563	605	508	530	686	614.67	670	543.33	555	544	668	587.5	543.67	629.67	601	492	515	620.5	603.67	563.33	561	555.33	644	584.33	699.5	559.67	493.33	1	0.66667	0.66667	0.66667	1	0.33333	0.66667	1	1	0.66667	1	1	1	0.66667	0.66667	0.33333	1	1	1	1	1	1	0.75	0.66667	0.66667	1	1	0.66667	0.66667	0.66667	0.66667	1	1	1	1	1	1	0.66667	1	1	3	3	3	3	3	3	3	3	3	3	3	3	3	3	3	3	3	3	3	3	3	3	4	3	3	3	3	3	3	3	3	3	3	3	3	3	3	3	3	3
12265	537.5	468	480	481.67	573	515	451	507.33	451.67	418.5	525.33	482	599.33	528	622.67	469	386	495.67	575.33	572	424	530	536.5	438.5	504	497	518	540	447.5	508	522.33	530.67	445.5	451	515.33	450	482	498	788.5	513	0.66667	0.33333	0.66667	1	0.66667	0.66667	0.66667	1	1	0.66667	1	1	1	1	1	0.66667	0.33333	1	1	0.33333	0.66667	0.66667	0.5	0.66667	0.66667	1	0.66667	1	0.66667	0.66667	1	1	0.66667	0.33333	1	0.66667	0.33333	1	0.66667	1	3	3	3	3	3	3	3	3	3	3	3	3	3	3	3	3	3	3	3	3	3	3	4	3	3	3	3	3	3	3	3	3	3	3	3	3	3	3	3	3
12269	493.33	522.33	446.5	500.33	561.67	528	483.67	510.33	449	451	631	574.67	512.67	568	567.67	596	615	532	542.33	524	485.67	513.67	500.5	534.5	523	513.67	550.33	457.33	502.5	545	613.5	527.67	477.5	564	538.33	601	587.67	565.5	545	523	1	1	0.66667	1	1	1	1	1	1	0.66667	1	1	1	0.66667	1	1	1	0.66667	1	1	1	1	1	0.66667	0.66667	1	1	1	0.66667	0.66667	0.66667	1	0.66667	0.66667	1	0.66667	1	0.66667	1	0.33333	3	3	3	3	3	3	3	3	3	3	3	3	3	3	3	3	3	3	3	3	3	3	4	3	3	3	3	3	3	3	3	3	3	3	3	3	3	3	3	3
12271	658.5	595.33	766.5	666.5	596.33	488	703	687	649	753.5	779.5	605.33	723.33	782.5	757.67	713	674.67	733.5	600	641	674.5	624	642.67	599	628	791.67	692.33	621.5	744.33	NaN	806	757.5	754	709.5	738	698.33	762.5	718.5	715.33	645	0.66667	1	0.66667	0.66667	1	0.33333	1	0.66667	1	0.66667	0.66667	1	1	0.66667	1	0.33333	1	0.66667	1	1	0.66667	0.66667	0.75	0.66667	0.66667	1	1	0.66667	1	0	0.66667	0.66667	1	0.66667	0.66667	1	0.66667	0.66667	1	0.66667	3	3	3	3	3	3	3	3	3	3	3	3	3	3	3	3	3	3	3	3	3	3	4	3	3	3	3	3	3	3	3	3	3	3	3	3	3	3	3	3
12272	658	702.33	672	624.67	584.67	511	573.5	735.5	580	757.5	584.33	678	594.67	690	668.67	599.5	549.67	704	617	568	534	636.67	660.67	588	666	647.33	747	723.33	687	620.5	672	648.33	599	627.5	615	631	657	623	658.33	567.5	1	1	0.66667	1	1	0.33333	0.66667	0.66667	0.33333	0.66667	1	1	1	0.66667	1	0.66667	1	1	0.66667	1	0.66667	1	0.75	0.33333	0.33333	1	0.33333	1	1	0.66667	0.66667	1	0.66667	0.66667	1	0.33333	0.66667	0.33333	1	0.66667	3	3	3	3	3	3	3	3	3	3	3	3	3	3	3	3	3	3	3	3	3	3	4	3	3	3	3	3	3	3	3	3	3	3	3	3	3	3	3	3
12273	424.33	402.67	345	381.67	416.33	426.33	411	431.33	435	392	475	512	461	481	464.33	467.67	416	514.33	494.33	444	413.67	393	448.75	449.33	406	468.33	423	413.33	373.33	380.33	495.5	531.33	419.33	469	496.5	529.33	459.67	475	522	479.33	1	1	0.66667	1	1	1	0.66667	1	1	0.66667	0.66667	1	1	1	1	1	1	1	1	1	1	1	1	1	0.66667	1	1	1	1	1	0.66667	1	1	1	0.66667	1	1	1	0.66667	1	3	3	3	3	3	3	3	3	3	3	3	3	3	3	3	3	3	3	3	3	3	3	4	3	3	3	3	3	3	3	3	3	3	3	3	3	3	3	3	3
12274	484	470.67	403	414.33	402	477	482.67	463.67	484.33	537	506	477.33	403.67	419	513.33	500	413.67	494.33	499.33	436.67	524	483	435.75	497	476.5	524.67	528.5	430.67	433	522	565	513.67	432.67	510	523	496.67	450	427	453.5	484	1	1	0.66667	1	0.66667	0.33333	1	1	1	0.66667	0.66667	1	1	0.66667	1	1	1	1	1	1	0.66667	1	1	0.66667	0.66667	1	0.66667	1	0.33333	0.66667	0.66667	1	1	1	1	1	1	1	0.66667	0.66667	3	3	3	3	3	3	3	3	3	3	3	3	3	3	3	3	3	3	3	3	3	3	4	3	3	3	3	3	3	3	3	3	3	3	3	3	3	3	3	3
12276	575.5	591.5	499	669.33	557.67	558	639	589	564.67	646	535.67	608.5	678.67	NaN	623.67	549	515	575.33	508.67	542	613.5	727.33	687.75	676	NaN	654	NaN	617.67	700	766	475	595	521	586	589.33	745.5	585	545	530	474	0.66667	0.66667	0.33333	1	1	0.66667	0.66667	0.66667	1	0.33333	1	0.66667	1	0	1	0.33333	0.66667	1	1	1	0.66667	1	1	0.66667	0	0.66667	0	1	0.33333	0.33333	0.33333	0.33333	0.33333	0.33333	1	0.66667	0.66667	0.66667	0.33333	1	3	3	3	3	3	3	3	3	3	3	3	3	3	3	3	3	3	3	3	3	3	3	4	3	3	3	3	3	3	3	3	3	3	3	3	3	3	3	3	3
12277	483.5	529.5	597.5	495	510.67	660.33	553.67	463.67	504.33	502	583.33	612.67	539	559.33	580.67	484.5	531	547	642	562.67	586.67	580.33	514.25	629	469	726	486.33	508.5	520.5	503.67	601.67	521.67	579.33	555.33	630	665	531.33	612	500.67	497	0.66667	0.66667	0.66667	1	1	1	1	1	1	0.33333	1	1	1	1	1	0.66667	1	1	1	1	1	1	1	1	0.33333	0.66667	1	0.66667	0.66667	1	1	1	1	1	1	0.66667	1	1	1	1	3	3	3	3	3	3	3	3	3	3	3	3	3	3	3	3	3	3	3	3	3	3	4	3	3	3	3	3	3	3	3	3	3	3	3	3	3	3	3	3
12282	538.5	458.67	460.5	411.67	442	439.5	486	454	465.33	406	509.33	484	457	522	564.33	534	530.33	474.67	516.33	476.33	626	545	430	466.33	426	410.33	521.33	376.33	363.33	418.67	578	500.67	585.33	620	528	514.67	466.33	514	536.67	507	0.66667	1	0.66667	1	1	0.66667	1	1	1	0.66667	1	1	1	0.66667	1	0.66667	1	1	1	1	0.66667	1	1	1	0.66667	1	1	1	1	1	0.33333	1	1	0.33333	1	1	1	1	1	0.66667	3	3	3	3	3	3	3	3	3	3	3	3	3	3	3	3	3	3	3	3	3	3	4	3	3	3	3	3	3	3	3	3	3	3	3	3	3	3	3	3
12283	507.33	488.33	398.5	514.5	539.33	461.33	521.67	434.33	571.33	481.5	551	546	422	643	496.67	574.33	597	589.67	443.67	450.67	496	443	589.75	564.67	563	559.5	698	533	498.33	494	550	530.67	466	479	555	438	555.67	512.67	601.33	449.67	1	1	0.66667	0.66667	1	1	1	1	1	0.66667	0.66667	1	1	1	1	1	1	1	1	1	1	0.66667	1	1	0.66667	0.66667	0.33333	1	1	1	1	1	1	0.33333	1	1	1	1	1	1	3	3	3	3	3	3	3	3	3	3	3	3	3	3	3	3	3	3	3	3	3	3	4	3	3	3	3	3	3	3	3	3	3	3	3	3	3	3	3	3
12287	613.5	613.33	675	550.67	544.33	505.5	608	623.67	537.33	680.5	459.67	582.67	513.67	543.33	576	562	549	478	468.33	511.33	616	623.67	624	600.67	537	643.33	748	693.67	677.33	582	666.5	650	617.67	659	NaN	662	644.33	539.33	579.5	587.67	0.66667	1	0.33333	1	1	0.66667	0.66667	1	1	0.66667	1	1	1	1	1	0.33333	0.66667	0.33333	1	1	0.66667	1	0.25	1	0.66667	1	0.33333	1	1	0.66667	0.66667	1	1	0.33333	0	1	1	1	0.66667	1	3	3	3	3	3	3	3	3	3	3	3	3	3	3	3	3	3	3	3	3	3	3	4	3	3	3	3	3	3	3	3	3	3	3	3	3	3	3	3	3
12288	499.67	440.67	531.5	576.67	466	584.67	579.33	496.33	484.33	630	660	493	410.33	575.5	610	664.5	630	556.67	535.67	547	621.33	474	546	542.33	494	611.67	634.5	470.67	602	641	677	640.67	675	808	615	650.67	620.67	649.5	584	497	1	1	0.66667	1	1	1	1	1	1	0.33333	0.33333	1	1	0.66667	1	0.66667	1	1	1	1	1	1	1	1	0.33333	1	0.66667	1	1	0.33333	0.33333	1	0.33333	0.33333	1	1	1	0.66667	0.66667	1	3	3	3	3	3	3	3	3	3	3	3	3	3	3	3	3	3	3	3	3	3	3	4	3	3	3	3	3	3	3	3	3	3	3	3	3	3	3	3	3
12291	466.5	472.33	420	491.33	515.67	545	568.33	496.67	569.33	503	555.33	460.67	489.67	534.67	594	475	530.67	512.5	471.67	532.33	558.33	546	546.5	519	641.5	573	488	587.33	592.33	559	536	514.67	477.67	598.5	615.33	556.67	484	513.33	557	509.67	0.66667	1	0.33333	1	1	1	1	1	1	0.66667	1	1	1	1	1	0.33333	1	0.66667	1	1	1	1	0.5	1	0.66667	0.66667	0.33333	1	1	1	0.33333	1	1	0.66667	1	1	1	1	1	1	3	3	3	3	3	3	3	3	3	3	3	3	3	3	3	3	3	3	3	3	3	3	4	3	3	3	3	3	3	3	3	3	3	3	3	3	3	3	3	3
12300	507	468.67	599.5	474.67	495	509	474	506.33	465.67	511	611.67	530	537	532	518	534.5	553.33	540.33	587.33	596.67	587	424.67	486.33	481	579	571	481.33	610.33	497.5	591.33	565.33	526.67	507	489.33	555.33	672.67	580.67	525	506	476.33	1	1	0.66667	1	1	0.66667	0.66667	1	1	0.66667	1	1	1	1	1	0.66667	1	1	1	1	0.66667	1	0.75	1	0.66667	1	1	1	0.66667	1	1	1	0.66667	1	1	1	1	0.66667	1	1	3	3	3	3	3	3	3	3	3	3	3	3	3	3	3	3	3	3	3	3	3	3	4	3	3	3	3	3	3	3	3	3	3	3	3	3	3	3	3	3
12301	NaN	NaN	NaN	NaN	NaN	NaN	NaN	NaN	NaN	523	NaN	NaN	NaN	NaN	NaN	NaN	NaN	NaN	523	NaN	NaN	NaN	NaN	NaN	589	474	NaN	NaN	NaN	843	NaN	NaN	NaN	NaN	405	NaN	NaN	NaN	678	NaN	0	0	0	0	0	0	0	0	0	0.33333	0	0	0	0	0	0	0	0	0.33333	0	0	0	0	0	0.33333	0.33333	0	0	0	0.33333	0	0	0	0	0.33333	0	0	0	0.33333	0	3	3	3	3	3	3	3	3	3	3	3	3	3	3	3	3	3	3	3	3	3	3	4	3	3	3	3	3	3	3	3	3	3	3	3	3	3	3	3	3
12305	605	613	592.5	614.33	632.33	602.5	613	565.67	642.67	634	571	704.5	723.67	601	716.5	619	699	512.5	551	617	NaN	NaN	NaN	NaN	836	NaN	NaN	NaN	NaN	NaN	NaN	NaN	NaN	NaN	NaN	NaN	660	NaN	522	NaN	0.33333	0.66667	0.66667	1	1	0.66667	1	1	1	0.66667	0.66667	0.66667	1	0.33333	0.66667	1	0.66667	0.66667	1	1	0	0	0	0	0.33333	0	0	0	0	0	0	0	0	0	0	0	0.33333	0	0.33333	0	3	3	3	3	3	3	3	3	3	3	3	3	3	3	3	3	3	3	3	3	3	3	4	3	3	3	3	3	3	3	3	3	3	3	3	3	3	3	3	3
12401	939	NaN	NaN	NaN	NaN	531	NaN	NaN	NaN	NaN	NaN	NaN	NaN	NaN	NaN	475	NaN	NaN	NaN	633	953	NaN	NaN	509	426	672	NaN	NaN	NaN	NaN	917	NaN	851	400	NaN	NaN	NaN	NaN	NaN	NaN	0.33333	0	0	0	0	0.33333	0	0	0	0	0	0	0	0	0	0.33333	0	0	0	0.33333	0.33333	0	0	0.33333	0.33333	0.33333	0	0	0	0	0.33333	0	0.33333	0.33333	0	0	0	0	0	0	3	3	3	3	3	3	3	3	3	3	3	3	3	3	3	3	3	3	3	3	3	3	4	3	3	3	3	3	3	3	3	3	3	3	3	3	3	3	3	3
12402	482	554	439	540.33	484	506.33	468.5	526.67	494.67	482	577.67	598	469.33	607.67	523.33	593.33	545.67	529	533	551	624.33	603	542	481.33	558.5	541.67	532.33	520.67	503	474	550.33	581.67	545	540	630.67	589	578.33	554	593.67	560	0.66667	0.66667	0.66667	1	0.33333	1	0.66667	1	1	0.66667	1	0.66667	1	1	1	1	1	1	1	1	1	0.66667	1	1	0.66667	1	1	1	1	0.66667	1	1	1	0.66667	1	1	1	1	1	1	3	3	3	3	3	3	3	3	3	3	3	3	3	3	3	3	3	3	3	3	3	3	4	3	3	3	3	3	3	3	3	3	3	3	3	3	3	3	3	3
12403	317	NaN	469	477.33	552.67	450.67	498.5	405	496.33	454	509	564.67	482.33	507.5	511	557	549.33	490.33	453.67	466	539.5	427.33	275.33	469	377.5	331	433.67	405.67	433.67	432	588.5	506.5	488	530	541.33	510.5	527	502	530	521.33	0.66667	0	0.66667	1	1	1	0.66667	0.66667	1	0.66667	0.66667	1	1	0.66667	1	0.66667	1	1	1	1	0.66667	1	0.75	1	0.66667	1	1	1	1	0.66667	0.66667	0.66667	0.66667	1	1	0.66667	0.66667	0.66667	0.66667	1	3	3	3	3	3	3	3	3	3	3	3	3	3	3	3	3	3	3	3	3	3	3	4	3	3	3	3	3	3	3	3	3	3	3	3	3	3	3	3	3
12405	380.33	448	411.5	393.33	397	422	499.67	412.67	420.33	480.5	482.33	575	407.67	412.5	525.67	496	451	445.67	401	441.67	420.67	451.67	500	363	487	414	507.5	417.33	379	346	461.67	387	431	519	377	432.67	426.67	488.5	425.33	434.67	1	1	0.66667	1	1	1	1	1	1	0.66667	1	0.66667	1	0.66667	1	0.66667	1	1	1	1	1	1	0.75	0.66667	0.66667	0.66667	0.66667	1	0.33333	0.33333	1	1	1	0.66667	0.33333	1	1	0.66667	1	1	3	3	3	3	3	3	3	3	3	3	3	3	3	3	3	3	3	3	3	3	3	3	4	3	3	3	3	3	3	3	3	3	3	3	3	3	3	3	3	3
12406	633.33	510	573	559.67	580.5	702.33	611.33	624	548.67	638	638	552.67	580.67	678	578	595	602.67	591	587.67	632.67	686.5	650	576	606.5	657.5	576	676.33	557.67	632.5	675.5	694.33	754.5	626	697	597.67	759	591.67	547	678	610	1	1	0.66667	1	0.66667	1	1	0.33333	1	0.33333	1	1	1	0.66667	0.66667	0.33333	1	1	1	1	0.66667	0.66667	0.75	0.66667	0.66667	0.66667	1	1	0.66667	0.66667	1	0.66667	0.66667	0.66667	1	0.33333	1	0.66667	0.66667	0.66667	3	3	3	3	3	3	3	3	3	3	3	3	3	3	3	3	3	3	3	3	3	3	4	3	3	3	3	3	3	3	3	3	3	3	3	3	3	3	3	3
12407	562	515.67	472	523	486.5	506.5	597	595.67	519	538.5	554.5	622.5	579	575	625	780	595	538	588.33	550.67	520	499	582.67	594.33	476	530	698.67	598.33	556	526	682	568.67	490	597	700	525	533	547	548.67	576.67	0.66667	1	0.66667	1	0.66667	0.66667	0.66667	1	1	0.66667	0.66667	0.66667	1	0.66667	0.66667	0.33333	1	1	1	1	0.66667	1	0.75	1	0.66667	0.66667	1	1	1	0.66667	1	1	1	1	0.66667	0.66667	1	1	1	1	3	3	3	3	3	3	3	3	3	3	3	3	3	3	3	3	3	3	3	3	3	3	4	3	3	3	3	3	3	3	3	3	3	3	3	3	3	3	3	3
12408	321.33	483.5	487.5	394.33	486.33	460	436.67	442.33	531	391.5	588.67	576.33	484.67	420.67	575	510.33	576	504.33	484	614	529.67	464	487.33	383.67	342	516	500.33	459.67	537.5	507.5	562.33	480.67	476.33	552	583.67	489	417	515.33	431	503	1	0.66667	0.66667	1	1	1	1	1	1	0.66667	1	1	1	1	0.66667	1	0.66667	1	0.66667	0.66667	1	1	0.75	1	0.66667	0.33333	1	1	0.66667	0.66667	1	1	1	0.33333	1	1	0.66667	1	1	1	3	3	3	3	3	3	3	3	3	3	3	3	3	3	3	3	3	3	3	3	3	3	4	3	3	3	3	3	3	3	3	3	3	3	3	3	3	3	3	3
12410	487.33	515.33	572	514	527.67	499	506.33	515	549.33	529.5	595	590.33	552.67	626.5	562.33	530.5	570.67	604.67	646	569.33	538.5	504.67	533	541	439	580.67	690.33	591	670.67	629.5	604	605.33	594	696.5	566	654	561.67	573	710.67	543.67	1	1	0.66667	1	1	1	1	1	1	0.66667	1	1	1	0.66667	1	0.66667	1	1	1	1	0.66667	1	0.5	0.33333	0.33333	1	1	1	1	0.66667	0.33333	1	1	0.66667	1	0.66667	1	1	1	1	3	3	3	3	3	3	3	3	3	3	3	3	3	3	3	3	3	3	3	3	3	3	4	3	3	3	3	3	3	3	3	3	3	3	3	3	3	3	3	3
12411	556.33	655.33	533	511.33	542	482	570	504	412	512.5	525.67	454	501.33	546.67	565	526.5	616	560.33	580	540.67	586.67	547.33	599	503.67	592	564	555.67	456.67	592.5	628.5	447.67	436.67	591	577	479	NaN	563.33	627	491	501	1	1	0.66667	1	1	0.66667	1	1	1	0.66667	1	0.66667	1	1	1	0.66667	0.66667	1	1	1	1	1	0.5	1	1	1	1	1	0.66667	0.66667	1	1	0.66667	1	0.66667	0	1	0.66667	1	1	3	3	3	3	3	3	3	3	3	3	3	3	3	3	3	3	3	3	3	3	3	3	4	3	3	3	3	3	3	3	3	3	3	3	3	3	3	3	3	3
12413	615.67	700.33	663	673.33	666.67	716	684	578.33	740.5	611.5	679.5	733	615	865	694	691	653.67	777	683.67	664.67	686	645	617	672.33	718	637	695.67	670	710.67	660.5	625.5	644	647.67	729	774.5	551	703.33	669.67	683.33	675	1	1	0.66667	1	1	0.66667	1	1	0.66667	0.66667	0.66667	1	0.66667	0.66667	0.33333	0.33333	1	1	1	1	0.66667	1	1	1	0.66667	1	1	1	1	0.66667	0.66667	1	1	0.33333	0.66667	0.33333	1	1	1	0.33333	3	3	3	3	3	3	3	3	3	3	3	3	3	3	3	3	3	3	3	3	3	3	4	3	3	3	3	3	3	3	3	3	3	3	3	3	3	3	3	3
12415	719.33	729.33	NaN	696.67	693.33	711.5	712.5	662	698.67	765.5	514.67	525.5	551.67	720	536	648.67	572	535	552.33	515.67	735	727.5	678	705	657	689.33	810	809.33	697.33	747	786	551	592.33	698	610.33	603.5	594.33	681.5	819.5	516.67	1	1	0	1	1	0.66667	0.66667	1	1	0.66667	1	0.66667	1	1	1	1	1	1	1	1	1	0.66667	1	1	0.66667	1	0.33333	1	1	0.33333	0.33333	0.66667	1	1	1	0.66667	1	0.66667	0.66667	1	3	3	3	3	3	3	3	3	3	3	3	3	3	3	3	3	3	3	3	3	3	3	4	3	3	3	3	3	3	3	3	3	3	3	3	3	3	3	3	3
12417	512.67	469	410.5	402.67	445	440.67	550.67	386	420	380.5	529	535.33	545	496.33	546.33	538.67	543.67	495.67	579	533	487.33	433	412.75	454	352	414	421.33	469.67	378	504	563	414	537.67	557.33	533.67	531	476	579.67	424.67	479	1	1	0.66667	1	1	1	1	0.66667	0.66667	0.66667	1	1	1	1	1	1	1	1	1	1	1	1	1	1	0.33333	1	1	1	1	0.33333	1	0.33333	1	1	1	0.66667	1	1	1	1	3	3	3	3	3	3	3	3	3	3	3	3	3	3	3	3	3	3	3	3	3	3	4	3	3	3	3	3	3	3	3	3	3	3	3	3	3	3	3	3
12418	537.33	529	424	450	369	473	537.67	462.33	505.33	577	542.67	464.67	492	574	534	547.33	545.67	570.67	525.67	565.67	456.33	465.33	463	608	514	489	497	453.5	531.67	483.33	533	578.67	543.33	532.33	483.33	540.33	544.67	530.67	467.33	548.67	1	1	0.66667	1	1	0.66667	1	1	1	0.66667	1	1	1	1	1	1	1	1	1	1	1	1	1	0.66667	0.66667	1	0.66667	0.66667	1	1	0.66667	1	1	1	1	1	1	1	1	1	3	3	3	3	3	3	3	3	3	3	3	3	3	3	3	3	3	3	3	3	3	3	4	3	3	3	3	3	3	3	3	3	3	3	3	3	3	3	3	3
12419	470.33	517	486.5	514.67	448.67	623	616	518.5	482	491	660	518	498	705	554.5	521	541.33	506.67	541	527.67	549.5	453.33	504.75	473	625.5	574.67	589	303	575.5	548	632	593.33	491	512	546	601	504	583	575.33	513.33	1	1	0.66667	1	1	0.66667	1	0.66667	1	0.66667	1	1	1	1	0.66667	0.66667	1	1	1	1	0.66667	1	1	1	0.66667	1	0.66667	0.33333	0.66667	0.66667	0.33333	1	1	0.33333	0.66667	0.66667	1	0.66667	1	1	3	3	3	3	3	3	3	3	3	3	3	3	3	3	3	3	3	3	3	3	3	3	4	3	3	3	3	3	3	3	3	3	3	3	3	3	3	3	3	3
12420	441.33	423	452.5	426	441.33	424.67	446.33	485	493	458.5	436	451.67	442.67	494.67	500.67	480.33	422	495.33	500.67	441	455	431.67	423	434	424	394.33	549.5	467	475	450	429	480	448	440.33	445	474.67	433	480.33	516	484.33	1	1	0.66667	1	1	1	1	1	0.66667	0.66667	1	1	1	1	1	1	0.66667	1	1	1	1	1	0.5	1	0.66667	1	0.66667	1	0.66667	1	1	0.33333	1	1	1	1	1	1	1	1	3	3	3	3	3	3	3	3	3	3	3	3	3	3	3	3	3	3	3	3	3	3	4	3	3	3	3	3	3	3	3	3	3	3	3	3	3	3	3	3
12422	576	594.67	599.5	539.67	533	549.67	666.67	633	652.33	758	625	551	488	560.67	567.5	661	533.67	628.67	571	560.67	631.67	607	577.5	572.67	541	610.5	540	502.5	645.5	664	612.33	666.5	626.33	633	622	533	564.67	603.67	632.5	590.67	0.66667	1	0.66667	1	1	1	1	1	1	0.33333	0.33333	1	0.66667	1	0.66667	1	1	1	1	1	1	1	1	1	0.66667	0.66667	0.66667	0.66667	0.66667	1	1	0.66667	1	1	0.66667	0.33333	1	1	0.66667	1	3	3	3	3	3	3	3	3	3	3	3	3	3	3	3	3	3	3	3	3	3	3	4	3	3	3	3	3	3	3	3	3	3	3	3	3	3	3	3	3
12423	623.67	569	647	540	490.33	512.67	586.33	524	450	694	552.33	663.67	542.67	579.33	545	636.67	617.67	535.67	490	648	654	596	685.75	686	NaN	730	730.33	473	470	559.5	767.33	589	664.33	559.5	620	535	683.67	663.33	671.67	527	1	1	0.66667	1	1	1	1	1	1	0.66667	1	1	1	1	0.66667	1	1	1	0.66667	1	1	1	1	1	0	1	1	1	0.66667	0.66667	1	1	1	0.66667	1	0.66667	1	1	1	1	3	3	3	3	3	3	3	3	3	3	3	3	3	3	3	3	3	3	3	3	3	3	4	3	3	3	3	3	3	3	3	3	3	3	3	3	3	3	3	3
12424	554	567	683	552	547.67	666	494	667.67	502	665	618.33	623.67	507.33	596	617.67	638.5	643	652	608.33	599.67	541	652	530.75	683.33	590	579.67	697	549.67	617	684.67	554.67	569	603	573	705	621.5	599.33	720	558.33	507.67	1	1	0.33333	1	1	1	0.66667	1	0.66667	0.66667	1	1	1	0.66667	1	0.66667	1	0.66667	1	1	0.66667	1	1	1	0.66667	1	0.66667	1	0.66667	1	1	1	1	0.66667	1	0.66667	1	0.66667	1	1	3	3	3	3	3	3	3	3	3	3	3	3	3	3	3	3	3	3	3	3	3	3	4	3	3	3	3	3	3	3	3	3	3	3	3	3	3	3	3	3
12425	619.33	626.5	683	689.5	765	545	662.33	663.5	721	788	653.33	569	658	679.5	912	797	662.67	698	690	711.67	642	739.33	716.5	633.33	715.5	669.67	828.5	680	812.33	678.33	NaN	619.67	587	858	791	721	574.67	657	791	697	1	0.66667	0.66667	0.66667	0.66667	0.66667	1	0.66667	0.33333	0.33333	1	0.66667	1	0.66667	0.33333	0.33333	1	0.66667	0.66667	1	1	1	1	1	0.66667	1	0.66667	0.33333	1	1	0	1	1	0.66667	0.66667	1	1	0.66667	1	1	3	3	3	3	3	3	3	3	3	3	3	3	3	3	3	3	3	3	3	3	3	3	4	3	3	3	3	3	3	3	3	3	3	3	3	3	3	3	3	3
12428	NaN	NaN	NaN	454	NaN	NaN	314	NaN	NaN	482	NaN	NaN	NaN	NaN	NaN	NaN	NaN	NaN	NaN	NaN	NaN	NaN	NaN	NaN	821	NaN	NaN	NaN	350	NaN	NaN	NaN	NaN	458	NaN	NaN	NaN	NaN	NaN	NaN	0	0	0	0.33333	0	0	0.33333	0	0	0.33333	0	0	0	0	0	0	0	0	0	0	0	0	0	0	0.33333	0	0	0	0.33333	0	0	0	0	0.33333	0	0	0	0	0	0	3	3	3	3	3	3	3	3	3	3	3	3	3	3	3	3	3	3	3	3	3	3	4	3	3	3	3	3	3	3	3	3	3	3	3	3	3	3	3	3
12431	670.67	618.33	639.5	620.67	587.67	670.33	638.67	739	682.33	507	704.67	638.33	641.33	601.67	586.5	681	608.5	626.33	607.33	643	650.33	656.33	735.67	703.33	654.5	571	697.5	791.67	786.33	656	695	697.33	685	709.67	663	666	708.5	607	610	715	1	1	0.66667	1	1	1	1	1	1	0.66667	1	1	1	1	0.66667	0.66667	0.66667	1	1	1	1	1	0.75	1	0.66667	0.33333	0.66667	1	1	0.33333	1	1	1	1	1	1	0.66667	0.33333	1	1	3	3	3	3	3	3	3	3	3	3	3	3	3	3	3	3	3	3	3	3	3	3	4	3	3	3	3	3	3	3	3	3	3	3	3	3	3	3	3	3
12433	457.33	384	514	401.67	420.67	404	437.67	525.33	436.33	402.5	495.33	533.67	453.33	489	511.5	511.33	490	446.33	499	470.33	459.33	421.67	470.5	424	468	445.67	457.33	436.33	454.67	450	610	471.67	470.33	503.33	514	525	554	513.67	468.67	459.33	1	0.66667	0.66667	1	1	1	1	1	1	0.66667	1	1	1	1	0.66667	1	1	1	1	1	1	1	1	1	0.66667	1	1	1	1	1	0.66667	1	1	1	0.66667	0.66667	1	1	1	1	3	3	3	3	3	3	3	3	3	3	3	3	3	3	3	3	3	3	3	3	3	3	4	3	3	3	3	3	3	3	3	3	3	3	3	3	3	3	3	3
12435	469	514.5	587	524	557.33	692	609	613.67	575.67	641	643.33	673.67	570	688	504	562	664	656.67	550	541	537.5	487	667.33	670.5	445.5	593	645	568.67	694	715.5	613	692	665.33	647.5	641	633.5	596.5	680	658	691.67	1	0.66667	0.66667	1	1	1	1	1	1	0.66667	1	1	0.66667	0.33333	0.66667	0.66667	1	1	0.66667	0.66667	0.66667	1	0.75	0.66667	0.66667	0.33333	0.33333	1	1	0.66667	0.33333	0.66667	1	0.66667	0.66667	0.66667	0.66667	1	0.66667	1	3	3	3	3	3	3	3	3	3	3	3	3	3	3	3	3	3	3	3	3	3	3	4	3	3	3	3	3	3	3	3	3	3	3	3	3	3	3	3	3
12436	560.33	469	437.5	352.67	370	494	495	353	320.33	386	451.33	444.67	343	570.5	468.67	542	545.5	440.33	441.5	399.5	449.5	416	405.33	362.67	396.5	460.67	409	373.67	341.33	416	510.5	501	404	498.33	550	452	500.5	479.67	391.33	474	1	1	0.66667	1	1	1	1	1	1	0.33333	1	1	0.66667	0.66667	1	1	0.66667	1	0.66667	0.66667	0.66667	0.66667	0.75	1	0.66667	1	1	1	1	0.66667	0.66667	0.33333	1	1	0.66667	0.66667	0.66667	1	1	1	3	3	3	3	3	3	3	3	3	3	3	3	3	3	3	3	3	3	3	3	3	3	4	3	3	3	3	3	3	3	3	3	3	3	3	3	3	3	3	3
12437	NaN	NaN	NaN	NaN	NaN	NaN	NaN	NaN	NaN	549	NaN	NaN	NaN	NaN	NaN	NaN	NaN	NaN	NaN	NaN	NaN	NaN	NaN	NaN	694	NaN	NaN	NaN	NaN	NaN	NaN	NaN	NaN	850	NaN	NaN	NaN	NaN	NaN	NaN	0	0	0	0	0	0	0	0	0	0.33333	0	0	0	0	0	0	0	0	0	0	0	0	0	0	0.33333	0	0	0	0	0	0	0	0	0.33333	0	0	0	0	0	0	3	3	3	3	3	3	3	3	3	3	3	3	3	3	3	3	3	3	3	3	3	3	4	3	3	3	3	3	3	3	3	3	3	3	3	3	3	3	3	3
12441	420.67	375.67	331	292.5	349.67	347	418	344.67	332.33	363	379.67	354.33	368	374.67	421	415	448	341.33	321.33	369	347.5	330.67	365.33	427	415.5	395	387.5	350.33	438	388.33	446	373.33	394.67	454	379	341.67	383.5	370.33	380.33	465	1	1	0.66667	0.66667	1	1	0.66667	1	1	0.66667	1	1	1	1	1	0.66667	1	1	1	1	0.66667	1	0.75	0.66667	0.66667	1	0.66667	1	0.66667	1	0.66667	1	1	1	0.66667	1	0.66667	1	1	1	3	3	3	3	3	3	3	3	3	3	3	3	3	3	3	3	3	3	3	3	3	3	4	3	3	3	3	3	3	3	3	3	3	3	3	3	3	3	3	3
12443	598	563	687.5	593	584	535	528	625	513	612.5	506	606.67	582	624	619	551	547.33	505.67	557.33	601.67	646	586.67	611.25	623.67	601.5	522.67	569.5	480.33	536	558.67	656.5	635	577	659	600.67	576.67	578.67	551.67	545	580.67	1	1	0.66667	1	0.66667	0.66667	0.33333	1	1	0.66667	1	1	1	0.66667	1	0.66667	1	1	1	1	1	1	1	1	0.66667	1	0.66667	1	1	1	0.66667	1	1	0.66667	1	1	1	1	1	1	3	3	3	3	3	3	3	3	3	3	3	3	3	3	3	3	3	3	3	3	3	3	4	3	3	3	3	3	3	3	3	3	3	3	3	3	3	3	3	3
12444	644	736	512.5	655.5	784.33	615	608	661.67	650.33	585.5	630	630.67	553.5	694.67	596.67	672.5	634	560.33	574	651.67	700	710.5	659.67	758	712.5	731	748	593	635	606	742.5	786	672	549.5	710	622.5	716	611.5	726	698.67	1	1	0.66667	0.66667	1	0.33333	0.66667	1	1	0.66667	0.33333	1	0.66667	1	1	0.66667	1	1	1	1	1	0.66667	0.75	0.33333	0.66667	1	0.66667	0.33333	0.33333	0.66667	0.66667	1	0.66667	0.66667	0.66667	0.66667	0.66667	0.66667	0.33333	1	3	3	3	3	3	3	3	3	3	3	3	3	3	3	3	3	3	3	3	3	3	3	4	3	3	3	3	3	3	3	3	3	3	3	3	3	3	3	3	3
12448	678.33	645.67	650	640.5	581.67	748	731.67	730.67	545.67	622.5	671.33	707.33	722.33	630.5	850	562	556.5	641	644	530	713	614.33	697.67	618	773.5	625	630.33	778.5	681	525	774	607	625.67	734.33	741.33	658	605.33	634.33	697.5	713	1	1	0.66667	0.66667	1	0.66667	1	1	1	0.66667	1	1	1	0.66667	0.33333	0.66667	0.66667	1	1	0.66667	1	1	0.75	1	0.66667	1	1	0.66667	1	0.66667	0.66667	0.66667	1	1	1	0.66667	1	1	0.66667	0.33333	3	3	3	3	3	3	3	3	3	3	3	3	3	3	3	3	3	3	3	3	3	3	4	3	3	3	3	3	3	3	3	3	3	3	3	3	3	3	3	3
12449	461	460.67	408.5	390.67	436.33	438	446.67	491.33	465.67	440.5	457.33	461	522.33	472.33	514.33	534.5	511.67	549.67	423	435.33	513.5	481.67	558.5	484.5	516	567.5	545	526.33	513	453	542.5	477	492.33	509.5	470.67	581	426.33	484.67	510.67	480.67	1	1	0.66667	1	1	1	1	1	1	0.66667	1	0.66667	1	1	1	0.66667	1	1	1	1	0.66667	1	1	0.66667	0.66667	0.66667	0.33333	1	1	0.66667	0.66667	1	1	0.66667	1	1	1	1	1	1	3	3	3	3	3	3	3	3	3	3	3	3	3	3	3	3	3	3	3	3	3	3	4	3	3	3	3	3	3	3	3	3	3	3	3	3	3	3	3	3
12450	768.5	781	718	843.33	639	761.5	842	643.33	582.5	NaN	624.33	726.67	648	769.5	724.67	692.5	725.33	642	586	646.33	660	627	601	554	601.5	672.33	732.5	657.33	667.5	665.5	727	699.5	674.67	589	883	578.33	602.5	559.5	730.67	625.67	0.66667	1	0.33333	1	0.33333	0.66667	0.33333	1	0.66667	0	1	1	1	0.66667	1	0.66667	1	0.66667	1	1	0.66667	1	0.5	0.66667	0.66667	1	0.66667	1	0.66667	0.66667	0.66667	0.66667	1	0.33333	0.33333	1	0.66667	0.66667	1	1	3	3	3	3	3	3	3	3	3	3	3	3	3	3	3	3	3	3	3	3	3	3	4	3	3	3	3	3	3	3	3	3	3	3	3	3	3	3	3	3
12451	659.67	566.5	716	441.33	654.67	543.5	437.5	460	587.33	691.5	533.33	639	549.33	572	636.33	672.67	604	625.67	629	585	698.33	639.67	611.5	617.5	619.5	699.5	738.67	421.5	603.5	759	743	619.5	734	612	587.33	681.5	772.67	686	547.33	605.67	1	0.66667	0.66667	1	1	0.66667	0.66667	1	1	0.66667	1	0.66667	1	1	1	1	0.66667	1	1	1	1	1	1	0.66667	0.66667	0.66667	1	0.66667	0.66667	1	0.66667	0.66667	0.66667	0.66667	1	0.66667	1	0.66667	1	1	3	3	3	3	3	3	3	3	3	3	3	3	3	3	3	3	3	3	3	3	3	3	4	3	3	3	3	3	3	3	3	3	3	3	3	3	3	3	3	3
12452	585.33	632.33	554	494	684	612.33	505.5	499	530.33	499.5	600.5	475.67	558.67	439	497.67	545	510.67	555.67	476.67	542	562.67	492	514.5	488.67	678.5	619	789	499	571.5	492.5	578.5	552.5	563.33	643.5	582.5	536	548.67	602.67	509.5	556	1	1	0.66667	1	0.66667	1	0.66667	1	1	0.66667	0.66667	1	1	0.66667	1	1	1	1	1	1	1	1	1	1	0.66667	1	0.33333	1	0.66667	0.66667	0.66667	0.66667	1	0.66667	0.66667	0.33333	1	1	0.66667	1	3	3	3	3	3	3	3	3	3	3	3	3	3	3	3	3	3	3	3	3	3	3	4	3	3	3	3	3	3	3	3	3	3	3	3	3	3	3	3	3
12453	510.33	580	491	501	489.5	570	514.67	592.67	471.5	555	668	483	578	714	627.5	613	556.67	659	598.67	662.67	582.5	581.5	623	469.5	661.5	595	568.5	549.33	554	487	661	624	557	532	593	523	634.5	565	576.5	660	1	1	0.66667	1	0.66667	1	1	1	0.66667	0.66667	1	0.66667	1	0.33333	0.66667	0.66667	1	1	1	1	0.66667	0.66667	0.5	0.66667	0.66667	1	0.66667	1	1	0.66667	0.66667	0.66667	0.66667	0.66667	0.66667	0.33333	0.66667	0.66667	0.66667	0.66667	3	3	3	3	3	3	3	3	3	3	3	3	3	3	3	3	3	3	3	3	3	3	4	3	3	3	3	3	3	3	3	3	3	3	3	3	3	3	3	3
12454	NaN	NaN	NaN	NaN	NaN	NaN	NaN	NaN	NaN	756	NaN	NaN	NaN	NaN	598	NaN	NaN	NaN	NaN	NaN	538	401	NaN	486	657	NaN	864	NaN	NaN	NaN	452	582	NaN	605	NaN	NaN	NaN	543	NaN	NaN	0	0	0	0	0	0	0	0	0	0.33333	0	0	0	0	0.33333	0	0	0	0	0	0.33333	0.33333	0	0.33333	0.33333	0	0.33333	0	0	0	0.33333	0.33333	0	0.33333	0	0	0	0.33333	0	0	3	3	3	3	3	3	3	3	3	3	3	3	3	3	3	3	3	3	3	3	3	3	4	3	3	3	3	3	3	3	3	3	3	3	3	3	3	3	3	3
12455	480.33	551.5	566.5	600	480	630.67	652	555.67	543	537.5	650.5	618.67	581.67	462.5	525	565	536.33	516	532.67	528.67	622.5	554.67	583.75	629.67	508.5	565.5	705	616.67	647	665	453.5	525	532	756	NaN	517	545	693.33	597.33	503	1	0.66667	0.66667	1	1	1	1	1	1	0.66667	0.66667	1	1	0.66667	0.66667	1	1	1	1	1	0.66667	1	1	1	0.66667	0.66667	0.33333	1	0.33333	1	0.66667	0.66667	0.66667	0.33333	0	1	1	1	1	1	3	3	3	3	3	3	3	3	3	3	3	3	3	3	3	3	3	3	3	3	3	3	4	3	3	3	3	3	3	3	3	3	3	3	3	3	3	3	3	3
12457	568	569	522	545.5	521.33	705	644	549	519	550.5	524	566	590.33	560.5	583.67	566.33	544.5	520.5	594	539	675	591.67	591.5	596.5	641.5	511	581	681	625	683.67	653.33	621.33	644.5	522	744	518.67	595.33	721.33	596.33	545	1	1	0.66667	0.66667	1	1	1	1	0.66667	0.66667	1	0.33333	1	0.66667	1	1	0.66667	0.66667	1	1	1	1	1	0.66667	0.66667	0.33333	0.66667	0.33333	0.66667	1	1	1	0.66667	1	1	1	1	1	1	0.66667	3	3	3	3	3	3	3	3	3	3	3	3	3	3	3	3	3	3	3	3	3	3	4	3	3	3	3	3	3	3	3	3	3	3	3	3	3	3	3	3
12459	573.67	713	827	521.67	585.67	715.5	722	645.5	622	781	626.33	589.33	467.67	614	462	773.33	540	547.33	618	615.33	632	647.67	555.33	602	651.5	630.5	749.67	716	528	NaN	716.5	739.67	566	542.5	747	624	564.5	664	557.5	560.5	1	1	0.33333	1	1	0.66667	0.33333	0.66667	1	0.33333	1	1	1	1	1	1	1	1	1	1	0.66667	1	0.75	0.66667	0.66667	0.66667	1	0.33333	1	0	0.66667	1	1	0.66667	0.66667	0.66667	0.66667	0.33333	0.66667	0.66667	3	3	3	3	3	3	3	3	3	3	3	3	3	3	3	3	3	3	3	3	3	3	4	3	3	3	3	3	3	3	3	3	3	3	3	3	3	3	3	3
12460	433	479.33	402.5	403	441.67	478	485	451.67	399.67	372	384.5	474.33	456.67	505	426	546.33	494	462	455.33	440.33	468.5	473.33	465.75	430.67	456	456.5	608	479	547	504	546	468	496.5	513	527.67	470.5	545.33	482.33	472	466.67	1	1	0.66667	1	1	1	1	1	1	0.66667	0.66667	1	1	1	1	1	0.66667	1	1	1	0.66667	1	1	1	0.66667	0.66667	0.33333	1	0.66667	0.33333	0.33333	0.66667	0.66667	1	1	0.66667	1	1	1	1	3	3	3	3	3	3	3	3	3	3	3	3	3	3	3	3	3	3	3	3	3	3	4	3	3	3	3	3	3	3	3	3	3	3	3	3	3	3	3	3
12461	444	550.67	617.5	648.5	573.67	507	622	528.67	473.5	423	518	366	566	701.33	551.33	542	533.5	497.67	457	490.67	529	437	504	566.5	411.5	669.5	673.5	488.67	543.5	673	571	615	613.67	670.5	735	445.67	760	511	585	602.67	0.66667	1	0.66667	0.66667	1	1	0.66667	1	0.66667	0.66667	1	0.66667	0.66667	1	1	1	0.66667	1	1	1	0.66667	1	1	0.66667	0.66667	0.66667	0.66667	1	0.66667	0.66667	0.66667	0.33333	1	0.66667	0.33333	1	0.33333	0.66667	0.66667	1	3	3	3	3	3	3	3	3	3	3	3	3	3	3	3	3	3	3	3	3	3	3	4	3	3	3	3	3	3	3	3	3	3	3	3	3	3	3	3	3
12462	623.67	670	571.5	546	600	429	601.33	636.67	604	606	670.33	564.33	495	540.5	678.33	547	506	682.67	567	586.67	439	480.5	606	489	527.5	473.33	750	559	537	453	NaN	525	777	639.5	698.33	637.5	511.67	781.67	652.5	604	1	0.66667	0.66667	1	1	0.33333	1	1	1	0.66667	1	1	0.66667	0.66667	1	0.33333	0.66667	1	1	1	0.66667	0.66667	1	0.66667	0.66667	1	0.66667	1	0.66667	0.66667	0	1	0.66667	0.66667	1	0.66667	1	1	0.66667	1	3	3	3	3	3	3	3	3	3	3	3	3	3	3	3	3	3	3	3	3	3	3	4	3	3	3	3	3	3	3	3	3	3	3	3	3	3	3	3	3
12463	633.5	512	588	447	578	716.5	665	465.33	480	493	724.5	604.5	593	580	770.33	778	627	575	632.33	573	636	498.5	509.33	519.33	643	337	620.5	517.67	585.33	615	541	665	536.33	539.67	449.5	550.5	563.33	604.5	575	675	0.66667	0.33333	0.66667	1	1	0.66667	0.33333	1	0.66667	0.66667	0.66667	0.66667	0.66667	0.66667	1	0.33333	0.33333	0.66667	1	1	0.66667	0.66667	0.75	1	0.66667	0.66667	0.66667	1	1	0.33333	0.33333	1	1	1	0.66667	0.66667	1	0.66667	0.66667	0.66667	3	3	3	3	3	3	3	3	3	3	3	3	3	3	3	3	3	3	3	3	3	3	4	3	3	3	3	3	3	3	3	3	3	3	3	3	3	3	3	3
12465	550.67	622	744.5	597.67	492.5	722.33	687.5	515	641.5	626	615	493.5	513.5	770.5	661.67	605	472	487.33	536.33	565.33	568	652	577	774	569.5	550	NaN	676	600.67	608	NaN	779.33	597	584	NaN	635.5	603.67	616.33	626.33	571.67	1	0.33333	0.66667	1	0.66667	1	0.66667	0.33333	0.66667	0.33333	0.66667	0.66667	0.66667	0.66667	1	1	0.66667	1	1	1	0.66667	1	0.25	0.66667	0.66667	0.33333	0	0.66667	1	0.33333	0	1	0.66667	0.66667	0	0.66667	1	1	1	1	3	3	3	3	3	3	3	3	3	3	3	3	3	3	3	3	3	3	3	3	3	3	4	3	3	3	3	3	3	3	3	3	3	3	3	3	3	3	3	3
12466	NaN	NaN	NaN	NaN	NaN	NaN	NaN	NaN	NaN	592	NaN	NaN	NaN	NaN	NaN	NaN	NaN	NaN	NaN	676	NaN	NaN	493	NaN	587	NaN	NaN	NaN	NaN	536	NaN	NaN	NaN	477	477	NaN	NaN	NaN	NaN	NaN	0	0	0	0	0	0	0	0	0	0.33333	0	0	0	0	0	0	0	0	0	0.33333	0	0	0.25	0	0.33333	0	0	0	0	0.33333	0	0	0	0.33333	0.33333	0	0	0	0	0	3	3	3	3	3	3	3	3	3	3	3	3	3	3	3	3	3	3	3	3	3	3	4	3	3	3	3	3	3	3	3	3	3	3	3	3	3	3	3	3
12467	NaN	NaN	NaN	NaN	257	397	NaN	NaN	NaN	432	648	NaN	NaN	NaN	672	424	NaN	NaN	NaN	NaN	597	NaN	433.5	NaN	487.5	NaN	496	NaN	525	486	370	NaN	NaN	NaN	NaN	671	NaN	498	NaN	731	0	0	0	0	0.33333	0.33333	0	0	0	0.33333	0.33333	0	0	0	0.33333	0.33333	0	0	0	0	0.33333	0	0.5	0	0.66667	0	0.33333	0	0.33333	0.66667	0.33333	0	0	0	0	0.33333	0	0.33333	0	0.33333	3	3	3	3	3	3	3	3	3	3	3	3	3	3	3	3	3	3	3	3	3	3	4	3	3	3	3	3	3	3	3	3	3	3	3	3	3	3	3	3
12469	597	568.5	633	497.33	542.33	500	588.67	568.67	476	537	668.5	696	571.33	664	695.33	526.5	607.67	521.67	574.67	498	519	476.67	544.25	557.67	576.5	525	656	502.33	551	515	NaN	566	661	682	608	605	634	662.67	586.5	680.67	0.66667	0.66667	0.33333	1	1	0.66667	1	1	0.66667	0.66667	0.66667	1	1	0.33333	1	0.66667	1	1	1	0.66667	0.66667	1	1	1	0.66667	1	0.66667	1	0.66667	0.66667	0	0.66667	0.33333	0.66667	1	0.66667	0.66667	1	0.66667	1	3	3	3	3	3	3	3	3	3	3	3	3	3	3	3	3	3	3	3	3	3	3	4	3	3	3	3	3	3	3	3	3	3	3	3	3	3	3	3	3
12470	638	571	665.5	566	691.33	581	600	664.33	614.67	569.5	724	637.67	746	727.67	710	613	611.67	645.33	718	603	612.5	583.5	728.25	547.67	591.5	675	674.5	727.67	583.5	579	691.67	795	645.33	640.33	686	639.5	619.67	633	760.5	723	1	0.66667	0.66667	0.66667	1	0.66667	1	1	1	0.66667	0.33333	1	0.66667	1	1	0.33333	1	1	1	0.66667	0.66667	0.66667	1	1	0.66667	1	0.66667	1	0.66667	0.66667	1	0.66667	1	1	1	0.66667	1	0.66667	0.66667	0.66667	3	3	3	3	3	3	3	3	3	3	3	3	3	3	3	3	3	3	3	3	3	3	4	3	3	3	3	3	3	3	3	3	3	3	3	3	3	3	3	3
12472	498.67	449.33	459.5	377.33	434	482	503	373.33	458.33	422	551	511.67	512.67	611	437.33	516.5	580.67	496.33	566.33	573.5	525	465.67	NaN	428.33	436	402	509	513.33	508.67	420.33	524.33	581.67	558.33	539	539.33	570.33	566	543.67	484.33	465.33	1	1	0.66667	1	1	1	1	1	1	0.33333	1	1	1	1	1	0.66667	1	1	1	0.66667	1	1	0	1	0.66667	1	1	1	1	1	1	1	1	0.66667	1	1	1	1	1	1	3	3	3	3	3	3	3	3	3	3	3	3	3	3	3	3	3	3	3	3	3	3	4	3	3	3	3	3	3	3	3	3	3	3	3	3	3	3	3	3
12474	524.33	508.67	472.5	471.33	481.33	539.67	595	564.33	522.33	467.5	562.67	517.33	451.67	463.67	519.67	471	473.67	457.33	486.67	485.33	569.67	488	561.33	531.33	554.5	523.33	567.33	579.67	626.33	516.33	652.67	510.33	534.33	593	539.5	553.33	517	468.33	539	535.33	1	1	0.66667	1	1	1	1	1	1	0.66667	1	1	1	1	1	0.66667	1	1	1	1	1	1	0.75	1	0.66667	1	1	1	1	1	1	1	1	1	0.66667	1	1	1	1	1	3	3	3	3	3	3	3	3	3	3	3	3	3	3	3	3	3	3	3	3	3	3	4	3	3	3	3	3	3	3	3	3	3	3	3	3	3	3	3	3
12475	594	580.33	489.5	578	554.67	584.5	538.67	633.67	574	593.5	574	540.33	444.33	589.67	469.67	546.33	558	489	498	587	537.5	559	598.33	573.33	451.5	551.67	685.33	532	738.5	701.33	598	725	560	457	548.67	538.5	457	528.67	549.67	619.33	1	1	0.66667	0.66667	1	0.66667	1	1	0.66667	0.66667	1	1	1	1	1	1	0.66667	1	1	0.66667	0.66667	0.33333	0.75	1	0.66667	1	1	0.66667	0.66667	1	1	0.66667	0.66667	0.66667	1	0.66667	0.66667	1	1	1	3	3	3	3	3	3	3	3	3	3	3	3	3	3	3	3	3	3	3	3	3	3	4	3	3	3	3	3	3	3	3	3	3	3	3	3	3	3	3	3
12476	564.67	630.33	556.5	662.5	463.67	660.5	565	644.67	627	537	629.5	732.33	627	443	601.5	777.5	503	529	715.67	489	403	581	823	651	697	655.5	538.5	712	701	639.33	547.5	579	579.5	534	NaN	648	506	737	797.5	714	1	1	0.66667	0.66667	1	0.66667	0.66667	1	0.66667	0.66667	0.66667	1	0.66667	0.33333	0.66667	0.66667	0.33333	0.66667	1	1	0.33333	1	0.25	1	0.66667	0.66667	0.66667	0.66667	0.33333	1	0.66667	0.33333	0.66667	0.33333	0	0.33333	0.66667	0.33333	0.66667	1	3	3	3	3	3	3	3	3	3	3	3	3	3	3	3	3	3	3	3	3	3	3	4	3	3	3	3	3	3	3	3	3	3	3	3	3	3	3	3	3
12477	606.33	633.67	474.5	558.33	541	537.67	567.33	575.67	462.67	532.5	579	560.67	461.5	568	538.33	544.67	521.67	562	615.67	553.67	550.67	550.5	575.67	489	608.5	577.33	611	513.33	674.33	575.67	751.33	605.67	666.67	540	620	665	596.33	642	585.5	600.67	1	1	0.66667	1	1	1	1	1	1	0.66667	1	1	0.66667	0.66667	1	1	1	0.66667	1	1	1	0.66667	0.75	1	0.66667	1	0.66667	1	1	1	1	1	1	0.66667	0.66667	0.66667	1	0.66667	0.66667	1	3	3	3	3	3	3	3	3	3	3	3	3	3	3	3	3	3	3	3	3	3	3	4	3	3	3	3	3	3	3	3	3	3	3	3	3	3	3	3	3
12478	468	610	464	613.67	555	611.33	590	612.33	474	759	573.33	749	573	758.5	728	658.33	516	559.33	566.5	509	564.33	542	657.33	574.5	449	581	776.5	772.67	521	598.5	840	720	552.5	803	621	612	710	639	615.33	696.67	0.66667	0.66667	0.33333	1	1	1	0.66667	1	1	0.66667	1	1	1	0.66667	0.66667	1	0.66667	1	0.66667	1	1	1	0.75	0.66667	0.66667	1	0.66667	1	0.66667	0.66667	0.33333	1	0.66667	0.33333	0.66667	0.66667	1	1	1	1	3	3	3	3	3	3	3	3	3	3	3	3	3	3	3	3	3	3	3	3	3	3	4	3	3	3	3	3	3	3	3	3	3	3	3	3	3	3	3	3
12479	551	364	427.5	441.33	400.33	392	397	453.33	586.33	391	583.67	468	502.67	480.5	621.33	450	648.33	552	512	483.33	375.33	466	535.25	552.33	375	424	299	433	688	633	610.33	469	528.67	539	435	510.5	565	503.33	528.33	514.67	1	0.66667	0.66667	1	1	1	0.33333	1	1	0.66667	1	0.66667	1	0.66667	1	0.66667	1	0.66667	0.66667	1	1	0.66667	1	1	0.66667	0.33333	0.33333	1	1	0.33333	1	0.66667	1	0.33333	0.66667	0.66667	0.66667	1	1	1	3	3	3	3	3	3	3	3	3	3	3	3	3	3	3	3	3	3	3	3	3	3	4	3	3	3	3	3	3	3	3	3	3	3	3	3	3	3	3	3
12480	707.67	562.67	615	535.33	552	534.67	598.67	689.33	594	654.5	690	584.33	650.67	701.33	683.67	640.33	656.33	709	689	556.67	674	583.33	516.75	536	665.5	615	787.67	511	638.5	515	736	740	788.67	655.5	617	645.5	552	596	714	612.5	1	1	0.66667	1	1	1	1	1	1	0.66667	1	1	1	1	1	1	1	1	1	1	0.66667	1	1	0.33333	0.66667	0.66667	1	0.66667	0.66667	1	1	0.66667	1	0.66667	1	0.66667	0.33333	0.66667	0.66667	0.66667	3	3	3	3	3	3	3	3	3	3	3	3	3	3	3	3	3	3	3	3	3	3	4	3	3	3	3	3	3	3	3	3	3	3	3	3	3	3	3	3
12481	524.5	577	479	401.67	507.67	583	454.5	534	541.33	554	484.67	535.33	545.67	466.5	671	546	506	548.33	464.5	541.5	501.67	517.67	457.33	635.5	500.5	472	669.5	578	543	587.33	531	566.33	552.67	467.33	532.67	640	579.67	536	580	511	0.66667	1	0.66667	1	1	1	0.66667	0.33333	1	0.66667	1	1	1	0.66667	1	1	1	1	0.66667	0.66667	1	1	0.75	0.66667	0.66667	1	0.66667	1	0.33333	1	1	1	1	1	1	0.66667	1	1	0.66667	1	3	3	3	3	3	3	3	3	3	3	3	3	3	3	3	3	3	3	3	3	3	3	4	3	3	3	3	3	3	3	3	3	3	3	3	3	3	3	3	3
12482	703	675	593	565.33	618.67	612	727.67	552	546.33	552.5	630	668	585	762.67	654.33	719.33	747.5	658	671.67	650.33	706.33	580	634	676.33	533.5	621.67	758.33	570.33	594	616.5	843	713	601.33	822	791	683	713.33	702.5	683.67	611	1	1	0.66667	1	1	0.33333	1	1	1	0.66667	0.33333	0.66667	1	1	1	1	0.66667	0.66667	1	1	1	0.66667	1	1	0.66667	1	1	1	1	0.66667	1	0.33333	1	0.33333	1	1	1	0.66667	1	1	3	3	3	3	3	3	3	3	3	3	3	3	3	3	3	3	3	3	3	3	3	3	4	3	3	3	3	3	3	3	3	3	3	3	3	3	3	3	3	3
12483	579	683.33	680.5	649.33	606	668	683	634.67	755	774.5	592	563.67	720.5	495.33	615	658.67	487	465.67	575.33	654	632.33	582.67	572	563.5	613.5	686.33	667	676.67	608.67	679	583.33	661	578.5	587.67	656	614.5	542.67	626	605.5	559	0.66667	1	0.66667	1	1	1	0.66667	1	0.66667	0.66667	1	1	0.66667	1	1	1	1	1	1	0.66667	1	1	0.75	0.66667	0.66667	1	1	1	1	0.66667	1	1	0.66667	1	1	0.66667	1	0.66667	0.66667	1	3	3	3	3	3	3	3	3	3	3	3	3	3	3	3	3	3	3	3	3	3	3	4	3	3	3	3	3	3	3	3	3	3	3	3	3	3	3	3	3
12484	540	537.67	545	581	559.67	634	608.33	598	660.5	469.5	590.67	561	586	602.33	627.67	591	597.33	590.33	668	635	549.33	534.67	546.25	523	597	576.33	621	559	630.5	605.33	646.33	560	623	645	618.33	618.33	579.67	614	665.67	613	1	1	0.66667	1	1	0.66667	1	1	0.66667	0.66667	1	1	1	1	1	1	1	1	0.66667	1	1	1	1	1	0.33333	1	0.66667	1	0.66667	1	1	1	1	0.66667	1	1	1	1	1	1	3	3	3	3	3	3	3	3	3	3	3	3	3	3	3	3	3	3	3	3	3	3	4	3	3	3	3	3	3	3	3	3	3	3	3	3	3	3	3	3
12485	NaN	NaN	NaN	NaN	NaN	NaN	NaN	NaN	NaN	568	695.5	NaN	NaN	NaN	NaN	NaN	NaN	NaN	NaN	NaN	NaN	NaN	NaN	NaN	457	NaN	290	NaN	436	NaN	728	NaN	NaN	NaN	NaN	NaN	NaN	NaN	NaN	NaN	0	0	0	0	0	0	0	0	0	0.33333	0.66667	0	0	0	0	0	0	0	0	0	0	0	0	0	0.33333	0	0.33333	0	0.33333	0	0.33333	0	0	0	0	0	0	0	0	0	3	3	3	3	3	3	3	3	3	3	3	3	3	3	3	3	3	3	3	3	3	3	4	3	3	3	3	3	3	3	3	3	3	3	3	3	3	3	3	3
12486	531.33	530	672	534.67	473.67	495	549	501.33	466.33	604.5	535	484	571.67	629.33	597.33	547.5	558	553.67	551	601.33	607.33	569.33	527.5	512.33	602	555.33	560	493	518	452	648.5	533	530.5	531.67	596	650	612.67	643	571.67	584.33	1	0.66667	0.33333	1	1	1	0.66667	1	1	0.66667	0.66667	0.33333	1	1	1	0.66667	0.66667	1	1	1	1	1	1	1	0.33333	1	1	1	1	0.66667	0.66667	1	0.66667	1	1	0.33333	1	1	1	1	3	3	3	3	3	3	3	3	3	3	3	3	3	3	3	3	3	3	3	3	3	3	4	3	3	3	3	3	3	3	3	3	3	3	3	3	3	3	3	3
12487	486.67	592	484.5	370.67	544.33	450.5	493.67	476.5	501.33	407	438	491	479	491.67	493	478.5	530.33	530	482	505	496	432.33	474	491	440.5	376.5	415.67	466.33	502	392	543	531	565	548.67	514.67	520.5	504	534.5	559.67	478	1	0.66667	0.66667	1	1	0.66667	1	0.66667	1	0.66667	0.66667	1	1	1	1	0.66667	1	1	1	1	1	1	1	1	0.66667	0.66667	1	1	1	0.66667	1	1	1	1	1	0.66667	1	0.66667	1	1	3	3	3	3	3	3	3	3	3	3	3	3	3	3	3	3	3	3	3	3	3	3	4	3	3	3	3	3	3	3	3	3	3	3	3	3	3	3	3	3
12489	562.67	516	428	496	553.67	573.33	582	506	433.67	545	547.67	482.5	466.67	580	650	583.5	562.67	572.33	548.33	545	560.67	453.33	585	539.67	419	443.67	NaN	505.33	556	526.5	703	514.5	556	496	620	611	545.5	524.33	576	562.67	1	1	0.66667	1	1	1	0.33333	1	1	1	1	0.66667	1	1	0.66667	0.66667	1	1	1	1	1	1	0.75	1	0.66667	1	0	1	0.66667	0.66667	0.66667	0.66667	1	0.66667	1	0.66667	0.66667	1	1	1	3	3	3	3	3	3	3	3	3	3	3	3	3	3	3	3	3	3	3	3	3	3	4	3	3	3	3	3	3	3	3	3	3	3	3	3	3	3	3	3
12490	474.33	487.67	346.5	461.67	501	387.67	456	527.67	353	604.5	523	452.5	526.33	504.33	540	443	528.5	448	455	425.5	495.5	435.33	466.5	471.33	451	362	402.5	405.33	405	438	386.67	552.67	439.67	429	441	484.33	467	523.67	453.67	544	1	1	0.66667	1	0.66667	1	1	1	1	0.66667	0.33333	0.66667	1	1	1	1	0.66667	1	1	0.66667	0.66667	1	1	1	0.66667	1	0.66667	1	1	1	1	1	1	1	1	1	1	1	1	1	3	3	3	3	3	3	3	3	3	3	3	3	3	3	3	3	3	3	3	3	3	3	4	3	3	3	3	3	3	3	3	3	3	3	3	3	3	3	3	3
12493	449	605	393	531.5	442.67	479.5	490	420.5	471.67	508.5	645.67	497	513	488	521	NaN	447	463	469	583.67	486.33	502	552	432.67	510.5	488.33	485.5	495.33	553.33	603	NaN	678	497.67	532	517.33	536.5	429	584.67	487.33	NaN	0.66667	1	0.66667	0.66667	1	0.66667	0.66667	0.66667	1	0.66667	1	1	1	0.66667	0.33333	0	1	1	0.66667	1	1	1	1	1	0.66667	1	0.66667	1	1	1	0	0.33333	1	0.33333	1	0.66667	0.66667	1	1	0	3	3	3	3	3	3	3	3	3	3	3	3	3	3	3	3	3	3	3	3	3	3	4	3	3	3	3	3	3	3	3	3	3	3	3	3	3	3	3	3
12494	596	675	491.5	676.67	571	631.67	607	619.33	547.5	653	570.5	454	482	718	659.67	453	517	501.5	618.33	752	471	346	828.5	601	350	590.5	647	NaN	641.5	658	665	505	532.33	899	596	545	554	541	576.67	599.33	1	0.66667	0.66667	1	1	1	0.33333	1	0.66667	0.66667	0.66667	0.66667	1	0.66667	1	0.33333	0.66667	0.66667	1	1	1	0.33333	0.5	1	0.66667	0.66667	0.66667	0	0.66667	1	0.33333	0.66667	1	0.33333	0.66667	0.66667	1	1	1	1	3	3	3	3	3	3	3	3	3	3	3	3	3	3	3	3	3	3	3	3	3	3	4	3	3	3	3	3	3	3	3	3	3	3	3	3	3	3	3	3
12495	583.67	680.5	753.5	555	713.67	566	781.5	750.5	629	627.5	694.67	646	712	811.5	726	725.33	758.67	647	676.67	624.5	587	704	563.25	684.33	678	473.33	764	694	525	561	783.5	679.5	676	754	731	700	641.5	604.5	530.67	644.67	1	0.66667	0.66667	1	1	0.33333	0.66667	0.66667	1	0.66667	1	1	1	0.66667	0.66667	1	1	1	1	0.66667	0.66667	1	1	1	0.66667	1	0.33333	1	0.66667	0.66667	0.66667	0.66667	0.66667	0.33333	0.33333	0.66667	0.66667	0.66667	1	1	3	3	3	3	3	3	3	3	3	3	3	3	3	3	3	3	3	3	3	3	3	3	4	3	3	3	3	3	3	3	3	3	3	3	3	3	3	3	3	3
12496	560.33	528.33	447	607	606.67	508.5	564	574	591	552.5	583.33	581	581.33	541.33	574	570	591	579	527.33	636.33	NaN	NaN	NaN	NaN	468	NaN	NaN	NaN	NaN	NaN	NaN	NaN	NaN	NaN	NaN	508	NaN	NaN	NaN	NaN	1	1	0.66667	1	1	0.66667	1	0.66667	1	0.66667	1	0.66667	1	1	1	1	1	1	1	1	0	0	0	0	0.33333	0	0	0	0	0	0	0	0	0	0	0.33333	0	0	0	0	3	3	3	3	3	3	3	3	3	3	3	3	3	3	3	3	3	3	3	3	3	3	4	3	3	3	3	3	3	3	3	3	3	3	3	3	3	3	3	3
12497	755.5	553.67	580	521	491.67	588	545.33	479	547.33	496	591.67	595.67	559.33	473.5	528.33	589.33	555.67	521	584.33	604.67	507	593.5	673.67	566	565.5	561.67	705	635.33	587.33	631	509.67	526.5	534.67	559	501	583	527	577.5	612.5	538.33	0.66667	1	0.66667	1	1	1	1	0.66667	1	0.66667	1	1	1	0.66667	1	1	1	1	1	1	0.33333	0.66667	0.75	0.66667	0.66667	1	0.33333	1	1	0.66667	1	0.66667	1	0.66667	1	0.33333	0.33333	0.66667	0.66667	1	3	3	3	3	3	3	3	3	3	3	3	3	3	3	3	3	3	3	3	3	3	3	4	3	3	3	3	3	3	3	3	3	3	3	3	3	3	3	3	3
12499	513.5	687	507.5	505.33	583.67	559	621	620	479.67	666.5	658	550.67	612.67	634	555.67	598	545.67	518	616.5	542.33	525.5	574.67	574.5	512	560.5	498.33	474	588.33	597	591	690	621	621.33	601	539	663.5	584	566.67	608.5	569.33	0.66667	0.66667	0.66667	1	1	0.66667	0.66667	0.66667	1	0.66667	1	1	1	0.66667	1	1	1	1	0.66667	1	0.66667	1	1	1	0.66667	1	0.66667	1	1	0.66667	0.66667	0.66667	1	0.33333	0.66667	0.66667	0.66667	1	0.66667	1	3	3	3	3	3	3	3	3	3	3	3	3	3	3	3	3	3	3	3	3	3	3	4	3	3	3	3	3	3	3	3	3	3	3	3	3	3	3	3	3
12500	554	531.5	463.5	521	587.67	583	557.67	546.33	509.33	539.5	602.67	576.33	614.33	599	602.33	589.33	606	584	594	623	620.5	461.67	523.75	507	551	575	632.33	552.33	569.33	644.33	669	592.5	564.5	667.5	645	595	613	722.67	538.33	612.5	1	0.66667	0.66667	1	1	1	1	1	1	0.66667	1	1	1	1	1	1	1	1	1	1	0.66667	1	1	0.66667	0.66667	1	1	1	1	1	0.33333	0.66667	0.66667	0.66667	1	0.66667	1	1	1	0.66667	3	3	3	3	3	3	3	3	3	3	3	3	3	3	3	3	3	3	3	3	3	3	4	3	3	3	3	3	3	3	3	3	3	3	3	3	3	3	3	3
12501	642	858	693.5	782.5	607.67	745	695.33	618	NaN	790	722	610	724	701.33	763	691.5	495	621.5	668.5	NaN	711.5	445	573.5	831	566	600.5	830	721	739	605	826	739.33	701	597.5	817.67	723.5	709	536	666.5	641	1	0.33333	0.66667	0.66667	1	0.66667	1	1	0	0.33333	0.66667	0.66667	1	1	1	0.66667	0.66667	0.66667	0.66667	0	0.66667	0.33333	0.5	0.33333	0.33333	0.66667	0.33333	0.66667	0.33333	0.33333	0.33333	1	0.66667	0.66667	1	0.66667	0.66667	0.33333	0.66667	0.66667	3	3	3	3	3	3	3	3	3	3	3	3	3	3	3	3	3	3	3	3	3	3	4	3	3	3	3	3	3	3	3	3	3	3	3	3	3	3	3	3
12502	535.67	550	482.5	531.33	496	660	654.67	543	551	568	573.5	563	471.67	574	639.5	710	467.67	510.5	587.33	650	532.67	490.67	608	487	606	636.67	564	546.67	NaN	618.5	698.5	615.67	567.67	616	568.67	NaN	562	547.67	590	576.33	1	1	0.66667	1	1	0.66667	1	0.66667	1	0.66667	0.66667	1	1	1	0.66667	0.66667	1	0.66667	1	1	1	1	0.75	1	0.33333	1	0.33333	1	0	0.66667	0.66667	1	1	0.66667	1	0	1	1	1	1	3	3	3	3	3	3	3	3	3	3	3	3	3	3	3	3	3	3	3	3	3	3	4	3	3	3	3	3	3	3	3	3	3	3	3	3	3	3	3	3
12503	607	625	649.5	629	614.67	683.5	672	659	744	729.5	718	548	562.33	665	683	691.67	631	630	607	563	692	620.33	710	759.67	677	711.67	786	698.5	821.33	694.33	667.5	598	620.67	639.5	721.5	724.5	664	631	707.33	645	0.66667	1	0.66667	1	1	0.66667	0.33333	1	0.66667	0.66667	0.33333	0.66667	1	1	0.66667	1	0.66667	0.66667	1	0.66667	1	1	1	1	0.66667	1	0.66667	0.66667	1	1	0.66667	1	1	0.66667	0.66667	0.66667	0.66667	1	1	1	3	3	3	3	3	3	3	3	3	3	3	3	3	3	3	3	3	3	3	3	3	3	4	3	3	3	3	3	3	3	3	3	3	3	3	3	3	3	3	3
12504	NaN	NaN	NaN	NaN	NaN	NaN	NaN	494	NaN	354	NaN	NaN	NaN	NaN	NaN	NaN	NaN	NaN	NaN	NaN	NaN	NaN	NaN	NaN	NaN	NaN	408	NaN	405	NaN	466.5	NaN	NaN	NaN	NaN	NaN	NaN	NaN	NaN	NaN	0	0	0	0	0	0	0	0.33333	0	0.33333	0	0	0	0	0	0	0	0	0	0	0	0	0	0	0	0	0.33333	0	0.33333	0	0.66667	0	0	0	0	0	0	0	0	0	3	3	3	3	3	3	3	3	3	3	3	3	3	3	3	3	3	3	3	3	3	3	4	3	3	3	3	3	3	3	3	3	3	3	3	3	3	3	3	3
12505	672.33	540.5	680	486	604.67	578	752	666.5	496.5	521	617.33	733.33	557.33	620.67	737.33	575	650.33	540.33	579.33	581.33	661.67	572.67	554	745.33	623	711.5	724.33	574.33	777.5	687	779	558	629	636.33	594.5	706	734	614.33	573	563.33	1	0.66667	0.66667	0.33333	1	0.66667	1	0.66667	0.66667	0.66667	1	1	1	1	1	0.66667	1	1	1	1	1	1	1	1	0.66667	0.66667	1	1	0.66667	0.33333	0.33333	0.33333	1	1	0.66667	0.66667	1	1	1	1	3	3	3	3	3	3	3	3	3	3	3	3	3	3	3	3	3	3	3	3	3	3	4	3	3	3	3	3	3	3	3	3	3	3	3	3	3	3	3	3
12506	554.5	569	586	464.33	537	612	388	513.33	475.67	597.5	581	569.5	578	601	709	553.5	566.33	565	530.67	546.67	436.5	472	468.67	515	495.5	549.5	560	572	471	568.33	632.33	524	562	489	606.67	664	517.5	513.33	550	554.67	0.66667	0.66667	0.33333	1	1	0.66667	0.33333	1	1	0.66667	1	0.66667	1	1	0.66667	0.66667	1	1	1	1	0.66667	0.66667	0.75	1	0.66667	0.66667	0.66667	1	0.66667	1	1	0.66667	0.66667	0.66667	1	0.66667	0.66667	1	1	1	3	3	3	3	3	3	3	3	3	3	3	3	3	3	3	3	3	3	3	3	3	3	4	3	3	3	3	3	3	3	3	3	3	3	3	3	3	3	3	3
12507	471.33	447.67	380	405.67	442.67	314.5	415.67	478	434	459.5	472.67	483.33	485	487.5	456	419	539.33	449.33	471.67	464.67	411.33	443.67	376.33	438.67	493.5	503.67	566.5	423.67	448	304	569.5	499.67	461.5	509	429	552	485	521.33	484.33	462.67	1	1	0.66667	1	1	0.66667	1	1	1	0.66667	1	1	1	0.66667	0.66667	0.66667	1	1	1	1	1	1	0.75	1	0.66667	1	0.66667	1	0.33333	0.33333	0.66667	1	0.66667	0.66667	0.66667	1	0.66667	1	1	1	3	3	3	3	3	3	3	3	3	3	3	3	3	3	3	3	3	3	3	3	3	3	4	3	3	3	3	3	3	3	3	3	3	3	3	3	3	3	3	3
12508	NaN	NaN	NaN	NaN	NaN	NaN	NaN	NaN	NaN	552	NaN	NaN	NaN	NaN	NaN	NaN	NaN	NaN	NaN	NaN	NaN	NaN	NaN	NaN	490	NaN	668	NaN	NaN	NaN	NaN	NaN	NaN	NaN	504	NaN	NaN	NaN	NaN	NaN	0	0	0	0	0	0	0	0	0	0.33333	0	0	0	0	0	0	0	0	0	0	0	0	0	0	0.33333	0	0.33333	0	0	0	0	0	0	0	0.33333	0	0	0	0	0	3	3	3	3	3	3	3	3	3	3	3	3	3	3	3	3	3	3	3	3	3	3	4	3	3	3	3	3	3	3	3	3	3	3	3	3	3	3	3	3
12509	888	NaN	816.5	821.67	896.5	850	829	741	875.5	922	926	848	839	764	671	NaN	934	869	819.5	849.33	691	791	917	835	875	912.5	890	930	743.5	NaN	893.5	NaN	NaN	894	789	830	977	NaN	931.5	897	0.66667	0	0.66667	1	0.66667	0.33333	0.33333	0.33333	0.66667	0.33333	0.66667	0.33333	0.66667	0.33333	0.33333	0	0.33333	0.33333	0.66667	1	0.33333	0.33333	0.25	0.33333	0.33333	0.66667	0.33333	0.33333	0.66667	0	0.66667	0	0	0.33333	0.33333	0.33333	0.33333	0	0.66667	1	3	3	3	3	3	3	3	3	3	3	3	3	3	3	3	3	3	3	3	3	3	3	4	3	3	3	3	3	3	3	3	3	3	3	3	3	3	3	3	3
12512	601.5	550.67	570	649.33	543.33	576.33	497	587.67	571.33	569.5	644.67	557.67	534	518.33	523.67	525	532.33	518.67	485	531.67	629.67	597	627.5	562.33	595	558.33	565	514.67	620	559.33	587.67	523.67	532.67	570.5	700	609	571	511.67	644.67	531.67	0.66667	1	0.33333	1	1	1	1	1	1	0.66667	1	1	1	1	1	1	1	1	0.66667	1	1	1	1	1	0.66667	1	1	1	1	1	1	1	1	0.66667	1	0.66667	0.66667	1	1	1	3	3	3	3	3	3	3	3	3	3	3	3	3	3	3	3	3	3	3	3	3	3	4	3	3	3	3	3	3	3	3	3	3	3	3	3	3	3	3	3
12513	607.67	559	592.5	668	570	661.67	616	667.67	627.67	636	682	612.67	607.33	708.67	686	599.5	567	596.67	557	573.5	602.67	669.33	672.5	623.67	623.5	614	673.5	678.67	600.67	767.33	668	757	600.67	697	725.33	658	573.33	623.67	638.67	558.33	1	0.66667	0.66667	1	1	1	1	1	1	0.66667	1	1	1	1	1	0.66667	0.66667	1	1	0.66667	1	1	1	1	0.66667	0.33333	0.66667	1	1	1	1	1	1	0.66667	1	0.66667	1	1	1	1	3	3	3	3	3	3	3	3	3	3	3	3	3	3	3	3	3	3	3	3	3	3	4	3	3	3	3	3	3	3	3	3	3	3	3	3	3	3	3	3
12514	579.67	658.67	621.5	580.33	531.33	526	604	608.67	651	595.5	590.33	577.33	515	709	659.33	687.67	570.33	511.67	636.5	503.67	565	648.67	564.25	529	579.5	752.33	684.5	617	607.33	595	716	717	596	593	668.5	568	494.5	713.33	586.33	594	1	1	0.66667	1	1	0.66667	1	1	0.66667	0.66667	1	1	1	0.33333	1	1	1	1	0.66667	1	0.66667	1	1	1	0.66667	1	0.66667	1	1	0.66667	0.66667	1	1	0.66667	0.66667	0.66667	0.66667	1	1	0.66667	3	3	3	3	3	3	3	3	3	3	3	3	3	3	3	3	3	3	3	3	3	3	4	3	3	3	3	3	3	3	3	3	3	3	3	3	3	3	3	3
12515	550.33	576	520	538	521.67	578	562	452	454.33	446	581.67	631.33	562.67	651.67	647	549.5	600.33	671.67	714	574.33	630	622.33	528.75	610.33	393.5	505	780.5	605.5	517.5	428.5	775.5	606.67	578.67	511	644.33	632	661.67	650.5	684.67	568.33	1	0.66667	0.66667	1	1	0.66667	0.33333	1	1	0.66667	1	1	1	1	0.66667	0.66667	1	1	1	1	1	1	1	1	0.66667	0.66667	0.66667	0.66667	0.66667	0.66667	0.66667	1	1	0.33333	1	1	1	0.66667	1	1	3	3	3	3	3	3	3	3	3	3	3	3	3	3	3	3	3	3	3	3	3	3	4	3	3	3	3	3	3	3	3	3	3	3	3	3	3	3	3	3
12516	495.67	442.5	519	484	516.67	411	616.5	498	507.67	532	602.67	566.67	448.33	471.67	534	517	514.67	491.33	497	531.67	513.67	421.33	488.67	604.67	422	496	485.5	595	561	531.33	545.67	588.67	690	510	563.33	595	520	NaN	636	517.67	1	0.66667	0.66667	1	1	1	0.66667	1	1	0.66667	1	1	1	1	1	1	1	1	1	1	1	1	0.75	1	0.66667	1	0.66667	1	1	1	1	1	0.33333	1	1	0.66667	1	0	0.66667	1	3	3	3	3	3	3	3	3	3	3	3	3	3	3	3	3	3	3	3	3	3	3	4	3	3	3	3	3	3	3	3	3	3	3	3	3	3	3	3	3
12517	550	533.67	613.5	484.33	417.33	519.33	505	463.67	469	483.5	443	493.33	466.67	580	507	570.5	529.33	500.33	535	457.33	507	497.67	477.75	563	446	463	543.5	454.67	538.67	539.5	502.5	531.5	509.33	518	534.33	546.5	516	521.67	547.67	470.33	0.33333	1	0.66667	1	1	1	0.66667	1	1	0.66667	1	1	1	0.66667	1	0.66667	1	1	1	1	0.33333	1	1	1	0.66667	1	0.66667	1	1	0.66667	0.66667	0.66667	1	0.66667	1	0.66667	1	1	1	1	3	3	3	3	3	3	3	3	3	3	3	3	3	3	3	3	3	3	3	3	3	3	4	3	3	3	3	3	3	3	3	3	3	3	3	3	3	3	3	3
12518	476.33	568.33	541.5	549	580	560	507.33	480.67	589.67	423.5	546.67	591.33	581	532.67	642	595	604.33	510	517	541	615.33	488.67	459	546.5	626	541.67	414.5	409	533.33	610	668.33	637	572.5	557	540	558	661.67	638.5	481	645	1	1	0.66667	1	0.66667	1	1	1	1	0.66667	1	1	1	1	1	0.66667	1	0.66667	0.66667	0.66667	1	1	0.75	0.66667	0.33333	1	0.66667	1	1	0.66667	1	0.66667	0.66667	0.66667	0.66667	0.66667	1	0.66667	0.66667	0.66667	3	3	3	3	3	3	3	3	3	3	3	3	3	3	3	3	3	3	3	3	3	3	4	3	3	3	3	3	3	3	3	3	3	3	3	3	3	3	3	3
12520	628.5	665	587	615.67	648.67	482.33	651.5	653	627	631.5	589.33	688.33	623	602.5	618.33	570.33	587	534.67	555.67	617.33	751	718.67	668	601	549	796	835.5	616.33	687.5	755	672.67	625	698.67	621	603.5	588	704.5	593.5	578.33	603.67	0.66667	1	0.66667	1	1	1	0.66667	1	1	0.66667	1	1	1	0.66667	1	1	1	1	1	1	0.66667	1	1	1	0.66667	0.66667	0.66667	1	0.66667	0.33333	1	0.33333	1	0.66667	0.66667	0.66667	0.66667	0.66667	1	1	3	3	3	3	3	3	3	3	3	3	3	3	3	3	3	3	3	3	3	3	3	3	4	3	3	3	3	3	3	3	3	3	3	3	3	3	3	3	3	3
12521	729.5	502	567.5	489	457	421	416	476.33	520	579.5	549	478.33	567	701	564.67	655.5	686	573.33	638.67	580.5	572	784.5	505.5	538	510.33	572.33	628	590	595.33	457.5	553.33	604	576	616.33	522	592.5	611.5	635	538	598	0.66667	0.33333	0.66667	1	0.33333	0.66667	0.66667	1	0.66667	0.66667	1	1	1	0.66667	1	0.66667	0.66667	1	1	0.66667	0.33333	0.66667	0.5	1	1	1	1	0.66667	1	0.66667	1	1	1	1	0.66667	0.66667	0.66667	0.66667	0.33333	1	3	3	3	3	3	3	3	3	3	3	3	3	3	3	3	3	3	3	3	3	3	3	4	3	3	3	3	3	3	3	3	3	3	3	3	3	3	3	3	3
12522	589.5	670.67	552	575.33	658	680.5	722.5	731.67	703.67	728	561.33	605	565.67	653	729	679	562.67	587.33	594.33	561	591.5	648	777	732.67	581.5	710.33	722.33	692	565.5	675	698	614	548.33	679	581	638.5	568.33	621.67	592	571	0.66667	1	0.66667	1	0.66667	0.66667	0.66667	1	1	0.66667	1	1	1	1	1	0.33333	1	1	1	1	0.66667	1	0.5	1	0.66667	1	1	0.66667	0.66667	0.33333	0.33333	1	1	0.33333	0.66667	0.66667	1	1	0.66667	1	3	3	3	3	3	3	3	3	3	3	3	3	3	3	3	3	3	3	3	3	3	3	4	3	3	3	3	3	3	3	3	3	3	3	3	3	3	3	3	3
12527	486	558.67	438.5	482	543.33	519	726	526.67	549.67	510	487	516.5	580.67	605	754.33	615.67	604	642	515	606.5	591	586	531.5	646.33	547	729.33	520	725	548	532	869	811.5	580.67	717	721	587	529.67	559.33	645.67	623	0.66667	1	0.66667	1	1	1	1	1	1	0.66667	1	0.66667	1	0.33333	1	1	1	0.66667	1	0.66667	0.33333	1	0.5	1	0.33333	1	0.66667	1	0.66667	0.33333	0.33333	0.66667	1	1	0.33333	0.66667	1	1	1	1	3	3	3	3	3	3	3	3	3	3	3	3	3	3	3	3	3	3	3	3	3	3	4	3	3	3	3	3	3	3	3	3	3	3	3	3	3	3	3	3
12528	514	499.5	644.5	524	538.33	545	637.5	516	580.67	509	506	533.33	529	642.5	605	563.67	619.67	662	654.67	521.33	542.33	671.67	603.25	611	602	660	540	634.33	672	463	733	584	495	564.5	595.67	714	559	507.5	644.33	605.67	0.66667	0.66667	0.66667	0.66667	1	1	0.66667	0.66667	1	0.66667	1	1	0.66667	0.66667	1	1	1	1	1	1	1	1	1	0.66667	0.66667	0.66667	0.66667	1	0.66667	0.66667	0.33333	0.66667	1	0.66667	1	0.33333	1	0.66667	1	1	3	3	3	3	3	3	3	3	3	3	3	3	3	3	3	3	3	3	3	3	3	3	4	3	3	3	3	3	3	3	3	3	3	3	3	3	3	3	3	3
12529	539	518.67	482.5	523.67	531.67	554	489.5	512.33	588.33	508	507.67	543.67	531	556	551.33	470.5	572.67	554	569.33	598.33	646.67	462.33	493.75	492	476.5	469.33	539	433	580	529.67	507.5	563.33	528.33	613.67	463.5	549.33	562.33	614.67	539.67	618.33	1	1	0.66667	1	1	1	0.66667	1	1	0.66667	1	1	1	1	1	0.66667	1	1	1	1	1	1	1	1	0.66667	1	0.66667	1	0.66667	1	0.66667	1	1	1	0.66667	1	1	1	1	1	3	3	3	3	3	3	3	3	3	3	3	3	3	3	3	3	3	3	3	3	3	3	4	3	3	3	3	3	3	3	3	3	3	3	3	3	3	3	3	3
12530	NaN	NaN	NaN	NaN	NaN	NaN	NaN	NaN	NaN	584	713.5	NaN	NaN	NaN	NaN	NaN	NaN	NaN	NaN	NaN	NaN	NaN	NaN	NaN	346	NaN	NaN	NaN	NaN	NaN	645	NaN	NaN	NaN	NaN	NaN	NaN	NaN	NaN	NaN	0	0	0	0	0	0	0	0	0	0.33333	0.66667	0	0	0	0	0	0	0	0	0	0	0	0	0	0.33333	0	0	0	0	0	0.33333	0	0	0	0	0	0	0	0	0	3	3	3	3	3	3	3	3	3	3	3	3	3	3	3	3	3	3	3	3	3	3	4	3	3	3	3	3	3	3	3	3	3	3	3	3	3	3	3	3
12531	638.5	655	574	580	591.67	565.5	578	580.67	669.67	529	626.33	560.5	602.33	629.67	717.5	612	667.67	580	495.33	574	617	608.67	612	654.67	697	656.67	665.5	736	588.33	662.33	589.5	604	583.67	733.67	789.33	627.5	586	654.33	581.67	565	0.66667	1	0.66667	1	1	0.66667	0.66667	1	1	0.66667	1	0.66667	1	1	0.66667	1	1	1	1	0.66667	0.66667	1	1	1	0.66667	1	0.66667	0.66667	1	1	0.66667	0.66667	1	1	1	0.66667	1	1	1	0.66667	3	3	3	3	3	3	3	3	3	3	3	3	3	3	3	3	3	3	3	3	3	3	4	3	3	3	3	3	3	3	3	3	3	3	3	3	3	3	3	3
12532	NaN	NaN	NaN	NaN	NaN	NaN	NaN	NaN	NaN	564	615	NaN	NaN	690	NaN	NaN	560	NaN	NaN	NaN	NaN	NaN	NaN	668	453.5	NaN	499	742	NaN	NaN	NaN	NaN	NaN	NaN	NaN	NaN	639	NaN	NaN	NaN	0	0	0	0	0	0	0	0	0	0.33333	0.33333	0	0	0.33333	0	0	0.33333	0	0	0	0	0	0	0.33333	0.66667	0	0.33333	0.33333	0	0	0	0	0	0	0	0	0.33333	0	0	0	3	3	3	3	3	3	3	3	3	3	3	3	3	3	3	3	3	3	3	3	3	3	4	3	3	3	3	3	3	3	3	3	3	3	3	3	3	3	3	3
12533	502	619	493	448.33	539.67	682.67	544.33	544.33	646.33	616.5	559.67	487	445	519	486	543	561.5	620.67	490	539.33	531.67	631.33	594.75	565	475.5	464.33	597.33	424	404	616.67	514	596.67	536.33	493.5	556.67	561.33	455.67	529.33	452.5	568.67	1	1	0.66667	1	1	1	1	1	1	0.66667	1	1	1	0.66667	1	0.66667	0.66667	1	0.66667	1	1	1	1	1	0.66667	1	1	0.66667	0.66667	1	0.33333	1	1	0.66667	1	1	1	1	0.66667	1	3	3	3	3	3	3	3	3	3	3	3	3	3	3	3	3	3	3	3	3	3	3	4	3	3	3	3	3	3	3	3	3	3	3	3	3	3	3	3	3
